Time,UTC,FINKEN_SENSOR_MODEL:acceleration_z,FINKEN_SENSOR_MODEL:acceleration_y,FINKEN_SENSOR_MODEL:acceleration_x,FINKEN_SENSOR_MODEL:velocity_yaw,FINKEN_SENSOR_MODEL:velocity_roll,FINKEN_SENSOR_MODEL:velocity_pitch,FINKEN_SENSOR_MODEL:velocity_z,FINKEN_SENSOR_MODEL:velocity_y,FINKEN_SENSOR_MODEL:velocity_x,FINKEN_SENSOR_MODEL:pos_yaw,FINKEN_SENSOR_MODEL:pos_roll,FINKEN_SENSOR_MODEL:pos_pitch,FINKEN_SENSOR_MODEL:pos_z,FINKEN_SENSOR_MODEL:distance_d_back,FINKEN_SENSOR_MODEL:distance_d_left,FINKEN_SENSOR_MODEL:distance_d_rigth,FINKEN_SENSOR_MODEL:distance_d_front
1.899,14:55:6.899,-9.827148,0.,0.094727,-0.012695,0.013672,-0.025391,0.,0.,0.,2.917236,-0.00708,0.05127,0.242188,102,44,56,102
1.999,14:55:6.999,-9.770508,-0.018555,0.12793,-0.012695,0.012695,-0.025391,0.,0.,0.,2.916016,-0.006836,0.05127,0.242188,102,44,56,102
2.099,14:55:7.099,-9.770508,-0.018555,0.12793,-0.012695,0.012695,-0.025391,0.,0.,0.,2.916016,-0.006836,0.05127,0.242188,102,44,56,102
2.199,14:55:7.199,-9.884766,0.080078,0.123047,-0.012695,0.013672,-0.027588,0.,0.,0.,2.914795,-0.006836,0.05127,0.242188,103,44,56,102
2.299,14:55:7.299,-9.779297,0.056641,0.118164,-0.009521,0.013672,-0.025391,0.,0.,0.,2.912598,-0.006836,0.051514,0.242188,103,44,56,102
2.399,14:55:7.399,-9.78418,0.075195,0.084961,-0.012695,0.010498,-0.025391,0.,0.,0.,2.911377,-0.006836,0.051514,0.242188,103,44,56,102
2.499,14:55:7.499,-9.736328,0.,-0.008789,-0.012695,0.013672,-0.029785,0.,0.,0.,2.9104,-0.006836,0.051514,0.242188,104,44,56,178
2.599,14:55:7.599,-9.736328,0.,-0.008789,-0.012695,0.013672,-0.029785,0.,0.,0.,2.9104,-0.006836,0.051514,0.242188,104,44,56,178
2.699,14:55:7.699,-9.736328,0.,-0.008789,-0.012695,0.013672,-0.029785,0.,0.,0.,2.9104,-0.006836,0.051514,0.242188,104,44,56,178
2.799,14:55:7.799,-9.770508,0.056641,0.023438,-0.010498,0.012695,-0.028564,0.,0.,0.,2.905029,-0.006592,0.051514,0.242188,104,44,56,293
2.899,14:55:7.899,-9.770508,0.056641,0.023438,-0.010498,0.012695,-0.028564,0.,0.,0.,2.905029,-0.006592,0.051514,0.242188,104,44,56,293
2.999,14:55:7.999,-9.818359,0.142578,0.013672,-0.012695,0.013672,-0.027588,0.,0.,0.,2.904053,-0.006592,0.051514,0.242188,104,44,56,293
3.099,14:55:8.099,-9.818359,0.142578,0.013672,-0.012695,0.013672,-0.027588,0.,0.,0.,2.904053,-0.006592,0.051514,0.242188,104,44,56,293
3.199,14:55:8.199,-9.841797,0.02832,0.041992,-0.010498,0.013672,-0.026367,0.,0.,0.,2.903076,-0.006592,0.051514,0.242188,103,44,56,293
3.299,14:55:8.299,-9.841797,0.02832,0.041992,-0.010498,0.013672,-0.026367,0.,0.,0.,2.903076,-0.006592,0.051514,0.242188,103,44,56,293
3.399,14:55:8.399,-9.879883,0.089844,0.070312,-0.011475,0.011475,-0.023193,0.,0.,0.,2.897705,-0.006348,0.051514,0.242188,103,44,56,293
3.499,14:55:8.499,-9.879883,0.089844,0.070312,-0.011475,0.011475,-0.023193,0.,0.,0.,2.897705,-0.006348,0.051514,0.242188,103,44,56,293
3.599,14:55:8.599,-9.779297,0.066406,0.023438,-0.011475,0.014893,-0.025391,0.,0.,0.,2.896729,-0.006348,0.051758,0.242188,102,44,56,293
3.699,14:55:8.699,-9.779297,0.066406,0.023438,-0.011475,0.014893,-0.025391,0.,0.,0.,2.896729,-0.006348,0.051758,0.242188,102,44,56,293
3.799,14:55:8.799,-9.851562,0.123047,0.118164,-0.013672,0.011475,-0.027588,0.,0.,0.,2.895752,-0.006348,0.051758,0.242188,102,44,56,293
3.899,14:55:8.899,-9.851562,0.123047,0.118164,-0.013672,0.011475,-0.027588,0.,0.,0.,2.895752,-0.006348,0.051758,0.242188,102,44,56,293
3.999,14:55:8.999,-9.875,0.056641,0.066406,-0.013672,0.015869,-0.026367,0.,0.,0.,2.892578,-0.006348,0.051758,0.242188,101,44,56,293
4.099,14:55:9.099,-9.836914,0.089844,0.089844,-0.011475,0.014893,-0.026367,0.,0.,0.,2.891602,-0.006348,0.051758,0.242188,101,44,56,293
4.199,14:55:9.199,-9.793945,0.056641,0.023438,-0.011475,0.014893,-0.026367,0.,0.,0.,2.886719,-0.006104,0.051758,0.242188,101,44,56,292
4.299,14:55:9.299,-9.793945,0.056641,0.023438,-0.011475,0.014893,-0.026367,0.,0.,0.,2.886719,-0.006104,0.051758,0.242188,101,44,56,292
4.399,14:55:9.399,-9.985352,0.084961,0.056641,-0.010498,0.012695,-0.026367,0.,0.,0.,2.885986,-0.006104,0.051758,0.242188,101,44,56,292
4.499,14:55:9.499,-9.985352,0.084961,0.056641,-0.010498,0.012695,-0.026367,0.,0.,0.,2.885986,-0.006104,0.051758,0.242188,101,44,56,292
4.599,14:55:9.599,-9.750977,0.02832,0.080078,-0.011475,0.011475,-0.028564,0.,0.,0.,2.881104,-0.005859,0.051758,0.242188,101,44,56,292
4.699,14:55:9.699,-9.750977,0.02832,0.080078,-0.011475,0.011475,-0.028564,0.,0.,0.,2.881104,-0.005859,0.051758,0.242188,101,44,56,292
4.799,14:55:9.799,-9.793945,0.108398,0.056641,-0.010498,0.012695,-0.025391,0.,0.,0.,2.878418,-0.005859,0.051758,0.242188,101,44,110,292
4.899,14:55:9.899,-9.793945,0.108398,0.056641,-0.010498,0.012695,-0.025391,0.,0.,0.,2.878418,-0.005859,0.051758,0.242188,101,44,110,292
4.999,14:55:9.999,-9.827148,0.089844,0.046875,-0.009521,0.012695,-0.026367,0.,0.,0.,2.877441,-0.005859,0.051758,0.242188,101,44,146,292
5.099,14:55:10.099,-9.827148,0.089844,0.046875,-0.009521,0.012695,-0.026367,0.,0.,0.,2.877441,-0.005859,0.051758,0.242188,101,44,146,292
5.199,14:55:10.199,-9.932617,0.089844,0.046875,-0.013672,0.012695,-0.025391,0.,0.,0.,2.869385,-0.005615,0.051758,0.242188,103,44,56,292
5.299,14:55:10.299,-9.927734,0.075195,0.02832,-0.010498,0.016846,-0.024414,0.,0.,0.,2.868408,-0.005615,0.052002,0.242188,103,44,56,292
5.399,14:55:10.399,-9.927734,0.075195,0.02832,-0.010498,0.016846,-0.024414,0.,0.,0.,2.868408,-0.005615,0.052002,0.242188,103,44,56,292
5.499,14:55:10.499,-9.894531,0.089844,0.037109,-0.011475,0.015869,-0.029785,0.,0.,0.,2.867676,-0.005615,0.052002,0.242188,103,44,56,292
5.599,14:55:10.599,-9.894531,0.089844,0.037109,-0.011475,0.015869,-0.029785,0.,0.,0.,2.867676,-0.005615,0.052002,0.242188,103,44,56,292
5.699,14:55:10.699,-9.813477,0.066406,0.113281,-0.011475,0.012695,-0.026367,0.,0.,0.,2.862793,-0.005615,0.051758,0.242188,103,44,127,292
5.799,14:55:10.799,-9.813477,0.066406,0.113281,-0.011475,0.012695,-0.026367,0.,0.,0.,2.862793,-0.005615,0.051758,0.242188,103,44,127,292
5.899,14:55:10.899,-9.84668,0.003906,0.051758,-0.009521,0.014893,-0.027588,0.,0.,0.,2.862061,-0.005615,0.051758,0.242188,103,44,145,292
5.999,14:55:10.999,-9.84668,0.003906,0.051758,-0.009521,0.014893,-0.027588,0.,0.,0.,2.862061,-0.005615,0.051758,0.242188,103,44,145,292
6.099,14:55:11.099,-9.774414,0.075195,0.013672,-0.008301,0.013672,-0.028564,0.,0.,0.,2.860352,-0.005615,0.051758,0.242188,102,44,145,292
6.199,14:55:11.199,-9.774414,0.075195,0.013672,-0.008301,0.013672,-0.028564,0.,0.,0.,2.860352,-0.005615,0.051758,0.242188,102,44,145,292
6.299,14:55:11.299,-9.808594,0.104492,0.104492,-0.011475,0.013672,-0.025391,0.,0.,0.,2.859619,-0.005615,0.052002,0.242188,102,44,145,292
6.399,14:55:11.399,-9.808594,0.104492,0.104492,-0.011475,0.013672,-0.025391,0.,0.,0.,2.859619,-0.005615,0.052002,0.242188,102,44,145,292
6.499,14:55:11.499,-9.813477,0.075195,0.061523,-0.013672,0.013672,-0.029785,0.,0.,0.,2.85791,-0.005615,0.051758,0.242188,102,44,146,292
6.599,14:55:11.599,-9.813477,0.075195,0.061523,-0.013672,0.013672,-0.029785,0.,0.,0.,2.85791,-0.005615,0.051758,0.242188,102,44,146,292
6.699,14:55:11.699,-9.808594,-0.013672,0.02832,-0.013672,0.011475,-0.026367,0.,0.,0.,2.857178,-0.005615,0.051758,0.242188,102,44,145,292
6.799,14:55:11.799,-9.808594,-0.013672,0.02832,-0.013672,0.011475,-0.026367,0.,0.,0.,2.857178,-0.005615,0.051758,0.242188,102,44,145,292
6.899,14:55:11.899,-9.870117,0.041992,0.041992,-0.008301,0.015869,-0.026367,0.,0.,0.,2.854736,-0.005615,0.051758,0.242188,102,44,145,292
6.999,14:55:11.999,-9.818359,0.041992,0.113281,-0.011475,0.015869,-0.028564,0.,0.,0.,2.85376,-0.005615,0.051758,0.242188,102,44,145,292
7.099,14:55:12.099,-9.818359,0.041992,0.113281,-0.011475,0.015869,-0.028564,0.,0.,0.,2.85376,-0.005615,0.051758,0.242188,102,44,145,292
7.199,14:55:12.199,-9.904297,0.033203,0.056641,-0.009521,0.012695,-0.026367,0.,0.,0.,2.851562,-0.005615,0.051514,0.242188,102,44,145,292
7.299,14:55:12.299,-9.904297,0.033203,0.056641,-0.009521,0.012695,-0.026367,0.,0.,0.,2.851562,-0.005615,0.051514,0.242188,102,44,145,292
7.399,14:55:12.399,-9.793945,0.084961,0.084961,-0.011475,0.012695,-0.025391,0.,0.,0.,2.845947,-0.005615,0.05127,0.242188,102,44,145,293
7.499,14:55:12.499,-9.793945,0.084961,0.084961,-0.011475,0.012695,-0.025391,0.,0.,0.,2.845947,-0.005615,0.05127,0.242188,102,44,145,293
7.599,14:55:12.599,-9.961914,0.12793,0.018555,-0.013672,0.011475,-0.025391,0.,0.,0.,2.844971,-0.005615,0.05127,0.242188,102,44,145,293
7.699,14:55:12.699,-9.961914,0.12793,0.018555,-0.013672,0.011475,-0.025391,0.,0.,0.,2.844971,-0.005615,0.05127,0.242188,102,44,145,293
7.799,14:55:12.799,-9.827148,0.075195,0.161133,-0.008301,0.009521,-0.026367,0.,0.,0.,2.844238,-0.005615,0.05127,0.242188,102,44,145,293
7.899,14:55:12.899,-9.827148,0.075195,0.161133,-0.008301,0.009521,-0.026367,0.,0.,0.,2.844238,-0.005615,0.05127,0.242188,102,44,145,293
7.999,14:55:12.999,-9.84668,0.075195,0.12793,-0.012695,0.015869,-0.026367,0.,0.,0.,2.843506,-0.005615,0.05127,0.242188,102,44,109,293
8.099,14:55:13.099,-9.84668,0.075195,0.12793,-0.012695,0.015869,-0.026367,0.,0.,0.,2.843506,-0.005615,0.05127,0.242188,102,44,109,293
8.199,14:55:13.199,-9.827148,0.113281,0.084961,-0.010498,0.015869,-0.027588,0.,0.,0.,2.842773,-0.005615,0.05127,0.242188,102,44,56,293
8.299,14:55:13.299,-9.808594,0.075195,0.070312,-0.011475,0.008301,-0.024414,0.,0.,0.,2.842285,-0.005615,0.051025,0.242188,102,44,109,293
8.399,14:55:13.399,-9.827148,0.099609,0.061523,-0.012695,0.013672,-0.023193,0.,0.,0.,2.841553,-0.005615,0.051025,0.242188,102,44,145,293
8.499,14:55:13.499,-9.827148,0.099609,0.061523,-0.012695,0.013672,-0.023193,0.,0.,0.,2.841553,-0.005615,0.051025,0.242188,102,44,145,293
8.599,14:55:13.599,-9.803711,0.061523,0.033203,-0.013672,0.013672,-0.028564,0.,0.,0.,2.840576,-0.005615,0.051025,0.242188,102,44,145,293
8.699,14:55:13.699,-9.803711,0.061523,0.033203,-0.013672,0.013672,-0.028564,0.,0.,0.,2.840576,-0.005615,0.051025,0.242188,102,44,145,293
8.799,14:55:13.799,-9.708008,0.089844,0.003906,-0.011475,0.018066,-0.027588,0.,0.,0.,2.839844,-0.005615,0.051025,0.242188,102,44,146,293
8.899,14:55:13.899,-9.793945,0.061523,0.051758,-0.011475,0.013672,-0.028564,0.,0.,0.,2.837158,-0.005615,0.051025,0.242188,102,44,56,293
8.999,14:55:13.999,-9.793945,0.061523,0.051758,-0.011475,0.013672,-0.028564,0.,0.,0.,2.837158,-0.005615,0.051025,0.242188,102,44,56,293
9.099,14:55:14.099,-9.78418,0.071289,0.041992,-0.012695,0.012695,-0.026367,0.,0.,0.,2.83667,-0.005615,0.050781,0.242188,102,44,109,293
9.199,14:55:14.199,-9.78418,0.071289,0.041992,-0.012695,0.012695,-0.026367,0.,0.,0.,2.83667,-0.005615,0.050781,0.242188,102,44,109,293
9.299,14:55:14.299,-9.961914,0.02832,0.089844,-0.010498,0.014893,-0.023193,0.,0.,0.,2.835449,-0.005615,0.050781,0.242188,101,44,91,293
9.399,14:55:14.399,-9.770508,0.066406,0.056641,-0.010498,0.012695,-0.028564,0.,0.,0.,2.834717,-0.005615,0.050781,0.242188,101,44,56,292
9.499,14:55:14.499,-9.818359,0.013672,0.123047,-0.012695,0.013672,-0.024414,0.,0.,0.,2.833984,-0.005615,0.050781,0.242188,101,44,56,292
9.599,14:55:14.599,-9.90918,0.046875,0.051758,-0.011475,0.011475,-0.024414,0.,0.,0.,2.833496,-0.005615,0.050781,0.242188,102,44,56,292
9.699,14:55:14.699,-9.587891,0.217773,0.056641,-0.015869,0.027588,-0.031738,0.,0.,0.,2.832764,-0.005615,0.050781,0.242188,102,44,56,292
9.799,14:55:14.799,-9.587891,0.217773,0.056641,-0.015869,0.027588,-0.031738,0.,0.,0.,2.832764,-0.005615,0.050781,0.242188,102,44,56,292
9.899,14:55:14.899,-9.549805,0.213867,0.289062,-0.0979,-0.026367,-0.074463,0.,0.,0.,2.833252,-0.005859,0.051025,0.242188,102,44,56,292
9.999,14:55:14.999,-9.549805,0.213867,0.289062,-0.0979,-0.026367,-0.074463,0.,0.,0.,2.833252,-0.005859,0.051025,0.242188,102,44,56,292
10.099,14:55:15.099,-8.985352,2.115234,-0.141602,-0.000977,-0.015869,-0.052002,0.,0.,0.,2.833252,-0.005371,0.05127,0.242188,102,44,56,293
10.199,14:55:15.199,-8.985352,2.115234,-0.141602,-0.000977,-0.015869,-0.052002,0.,0.,0.,2.833252,-0.005371,0.05127,0.242188,102,44,56,293
10.299,14:55:15.299,-9.635742,-0.189453,0.023438,0.009521,0.065918,-0.102051,0.,0.,0.,2.83252,-0.006592,0.051514,0.242188,102,44,74,292
10.399,14:55:15.399,-9.635742,-0.189453,0.023438,0.009521,0.065918,-0.102051,0.,0.,0.,2.83252,-0.006592,0.051514,0.242188,102,44,74,292
10.499,14:55:15.499,-9.506836,0.855469,-0.612305,-0.047852,0.00415,-0.026367,0.,0.,0.,2.832275,-0.005859,0.051514,0.242188,102,44,128,292
10.599,14:55:15.599,-9.506836,0.855469,-0.612305,-0.047852,0.00415,-0.026367,0.,0.,0.,2.832275,-0.005859,0.051514,0.242188,102,44,128,292
10.699,14:55:15.699,-9.511719,0.40332,0.061523,0.040283,-0.02002,0.047852,0.,0.,0.,2.830811,-0.005371,0.05127,0.242188,103,44,146,293
10.799,14:55:15.799,-9.200195,0.327148,-0.118164,-0.032959,0.106201,-0.101074,0.,0.,0.,2.830078,-0.006104,0.051758,0.242188,103,44,146,293
10.899,14:55:15.899,-9.501953,0.912109,-0.50293,0.008301,-0.04248,-0.024414,0.,0.,0.,2.829834,-0.005615,0.05127,0.242188,103,44,128,293
10.999,14:55:15.999,-11.291992,0.375,0.90625,0.00415,-0.008301,0.011475,0.,0.,0.,2.828613,-0.005371,0.051025,0.242188,102,44,57,292
11.099,14:55:16.099,-8.683594,-0.541016,-0.061523,-0.016846,0.008301,0.012695,0.,0.,0.,2.828125,-0.005615,0.05127,0.242188,103,44,57,292
11.199,14:55:16.199,-8.683594,-0.541016,-0.061523,-0.016846,0.008301,0.012695,0.,0.,0.,2.828125,-0.005615,0.05127,0.242188,103,44,57,292
11.299,14:55:16.299,-8.683594,-0.541016,-0.061523,-0.016846,0.008301,0.012695,0.,0.,0.,2.828125,-0.005615,0.05127,0.242188,103,44,57,292
11.399,14:55:16.399,-8.683594,-0.541016,-0.061523,-0.016846,0.008301,0.012695,0.,0.,0.,2.828125,-0.005615,0.05127,0.242188,103,44,57,292
11.499,14:55:16.499,-8.683594,-0.541016,-0.061523,-0.016846,0.008301,0.012695,0.,0.,0.,2.828125,-0.005615,0.05127,0.242188,103,44,57,292
11.599,14:55:16.599,-9.200195,0.094727,-0.204102,-0.013672,-0.132812,0.025391,0.,0.,0.,2.82666,-0.006104,0.05127,0.242188,104,44,145,292
11.699,14:55:16.699,-9.200195,0.094727,-0.204102,-0.013672,-0.132812,0.025391,0.,0.,0.,2.82666,-0.006104,0.05127,0.242188,104,44,145,292
11.799,14:55:16.799,-9.200195,0.094727,-0.204102,-0.013672,-0.132812,0.025391,0.,0.,0.,2.82666,-0.006104,0.05127,0.242188,104,44,145,292
11.899,14:55:16.899,-9.200195,0.094727,-0.204102,-0.013672,-0.132812,0.025391,0.,0.,0.,2.82666,-0.006104,0.05127,0.242188,104,44,145,292
11.999,14:55:16.999,-10.09082,-1.197266,-0.227539,-0.014893,-0.013672,-0.051025,0.,0.,0.,2.81958,-0.005859,0.049561,0.242188,104,44,109,293
12.099,14:55:17.099,-12.522461,0.260742,-0.683594,0.064697,1.066162,-0.143555,0.,0.,0.,2.830078,0.041748,0.035889,0.207031,104,44,88,293
12.199,14:55:17.199,-13.647461,0.24707,-0.801758,0.025391,-0.620361,0.057373,0.,0.,0.,2.833252,0.061523,-0.011719,0.207031,104,45,50,293
12.299,14:55:17.299,-9.894531,0.550781,0.137695,0.046631,-0.643799,0.20752,0.,0.,0.,2.844238,0.05835,0.020996,0.207031,103,47,108,295
12.399,14:55:17.399,-8.702148,-0.394531,-0.279297,-0.000977,-0.20752,-2.46875,0.,0.,0.,2.851807,-0.121582,0.010498,0.3125,96,142,143,299
12.499,14:55:17.499,-8.702148,-0.394531,-0.279297,-0.000977,-0.20752,-2.46875,0.,0.,0.,2.851807,-0.121582,0.010498,0.3125,96,142,143,299
12.599,14:55:17.599,-7.06543,0.02832,-0.90625,0.02002,-0.238281,-1.047119,0.,0.,0.,2.853516,-0.216797,0.010742,0.382812,93,143,140,299
12.699,14:55:17.699,-7.06543,0.02832,-0.90625,0.02002,-0.238281,-1.047119,0.,0.,0.,2.853516,-0.216797,0.010742,0.382812,93,143,140,299
12.799,14:55:17.799,-7.251953,0.34668,0.640625,0.025391,0.065918,1.192871,0.,0.,0.,2.859131,-0.236572,0.008301,0.449219,92,82,139,299
12.899,14:55:17.899,-7.251953,0.34668,0.640625,0.025391,0.065918,1.192871,0.,0.,0.,2.859131,-0.236572,0.008301,0.449219,92,82,139,299
12.999,14:55:17.999,-7.271484,0.222656,-0.87793,-0.186035,-0.060547,0.320312,0.,0.,0.,2.869873,-0.137207,-0.008789,0.476562,91,42,137,299
13.099,14:55:18.099,-9.008789,0.037109,0.87793,-0.067871,-0.123291,2.845459,0.,0.,0.,2.867188,-0.024658,-0.01001,0.464844,91,44,136,299
13.199,14:55:18.199,-9.386719,-0.008789,0.099609,-0.008301,0.076416,0.600098,0.,0.,0.,2.86792,0.185547,-0.001709,0.410156,91,46,137,299
13.299,14:55:18.299,-9.386719,-0.008789,0.099609,-0.008301,0.076416,0.600098,0.,0.,0.,2.86792,0.185547,-0.001709,0.410156,91,46,137,299
13.399,14:55:18.399,-10.301758,0.698242,0.512695,0.012695,0.300049,-1.588623,0.,0.,0.,2.875,0.222168,0.008057,0.363281,91,104,138,299
13.499,14:55:18.499,-10.301758,0.698242,0.512695,0.012695,0.300049,-1.588623,0.,0.,0.,2.875,0.222168,0.008057,0.363281,91,104,138,299
13.599,14:55:18.599,-12.584961,-0.451172,0.075195,-0.057373,-0.006348,-1.307861,0.,0.,0.,2.883057,-0.198486,0.038086,0.207031,93,143,52,299
13.699,14:55:18.699,-11.029297,0.351562,-0.260742,-0.083008,0.139404,-0.067871,0.,0.,0.,2.876953,-0.254883,0.045166,0.207031,94,143,66,297
13.799,14:55:18.799,-11.029297,0.351562,-0.260742,-0.083008,0.139404,-0.067871,0.,0.,0.,2.876953,-0.254883,0.045166,0.207031,94,143,66,297
13.899,14:55:18.899,-10.626953,-0.555664,0.023438,-0.137207,0.054199,0.142578,0.,0.,0.,2.869629,-0.26123,0.044678,0.203125,95,127,114,295
13.999,14:55:18.999,-10.626953,-0.555664,0.023438,-0.137207,0.054199,0.142578,0.,0.,0.,2.869629,-0.26123,0.044678,0.203125,95,127,114,295
14.099,14:55:19.099,-9.018555,0.926758,-1.424805,-0.090332,0.001953,0.306396,0.,0.,0.,2.861572,0.006836,0.047852,0.265625,98,60,133,291
14.199,14:55:19.199,-9.018555,0.926758,-1.424805,-0.090332,0.001953,0.306396,0.,0.,0.,2.861572,0.006836,0.047852,0.265625,98,60,133,291
14.299,14:55:19.299,-11.253906,0.427734,0.892578,-0.056396,0.112793,-1.336426,0.,0.,0.,2.88623,-0.173828,0.059814,0.207031,111,119,56,276
14.399,14:55:19.399,-11.253906,0.427734,0.892578,-0.056396,0.112793,-1.336426,0.,0.,0.,2.88623,-0.173828,0.059814,0.207031,111,119,56,276
14.499,14:55:19.499,-11.311523,0.427734,0.146484,-0.09668,0.227539,0.551025,0.,0.,0.,2.882568,-0.226318,0.067871,0.207031,113,119,77,257
14.599,14:55:19.599,-11.311523,0.427734,0.146484,-0.09668,0.227539,0.551025,0.,0.,0.,2.882568,-0.226318,0.067871,0.207031,113,119,77,257
14.699,14:55:19.699,-9.808594,0.456055,0.383789,-0.065918,0.052979,0.320312,0.,0.,0.,2.875732,-0.229248,0.070068,0.207031,116,104,124,245
14.799,14:55:19.799,-9.808594,0.456055,0.383789,-0.065918,0.052979,0.320312,0.,0.,0.,2.875732,-0.229248,0.070068,0.207031,116,104,124,245
14.899,14:55:19.899,-9.793945,-0.293945,0.911133,-0.197754,-0.060547,2.802002,0.,0.,0.,2.876709,0.002686,0.076172,0.210938,118,59,141,147
14.999,14:55:19.999,-9.793945,-0.293945,0.911133,-0.197754,-0.060547,2.802002,0.,0.,0.,2.876709,0.002686,0.076172,0.210938,118,59,141,147
15.099,14:55:20.099,-9.793945,-0.293945,0.911133,-0.197754,-0.060547,2.802002,0.,0.,0.,2.876709,0.002686,0.076172,0.210938,118,59,141,147
15.199,14:55:20.199,-9.793945,-0.293945,0.911133,-0.197754,-0.060547,2.802002,0.,0.,0.,2.876709,0.002686,0.076172,0.210938,118,59,141,147
15.299,14:55:20.299,-9.995117,1.463867,-0.545898,-0.024414,1.198242,0.529785,0.,0.,0.,2.880127,0.189453,0.098389,0.246094,122,101,130,192
15.399,14:55:20.399,-9.995117,1.463867,-0.545898,-0.024414,1.198242,0.529785,0.,0.,0.,2.880127,0.189453,0.098389,0.246094,122,101,130,192
15.499,14:55:20.499,-8.688477,-0.037109,-1.585938,-0.093506,0.239258,-0.279785,0.,0.,0.,2.891357,0.256592,0.213623,0.28125,122,115,86,266
15.599,14:55:20.599,-7.702148,-0.646484,0.583984,-0.076416,-2.198486,-4.276855,0.,0.,0.,2.883789,0.173584,0.19873,0.300781,123,112,71,266
15.699,14:55:20.699,-9.578125,-1.079102,0.013672,-0.153076,-0.371338,-0.758545,0.,0.,0.,2.87793,-0.128662,0.015869,0.296875,122,112,71,267
15.799,14:55:20.799,-10.536133,0.217773,2.18457,-0.022217,0.223389,0.319092,0.,0.,0.,2.875977,-0.250732,-0.032471,0.289062,122,113,101,222
15.899,14:55:20.899,-10.258789,0.151367,-0.541016,-0.001953,-0.101074,-0.325439,0.,0.,0.,2.869141,-0.26001,-0.009033,0.28125,120,85,148,192
15.999,14:55:20.999,-10.110352,-1.830078,0.099609,-0.210693,0.338379,3.983154,0.,0.,0.,2.870605,-0.03418,0.01709,0.261719,120,44,149,127
16.099,14:55:21.099,-10.110352,-1.830078,0.099609,-0.210693,0.338379,3.983154,0.,0.,0.,2.870605,-0.03418,0.01709,0.261719,120,44,149,127
16.199,14:55:21.199,-10.823242,-0.237305,-0.265625,0.012695,0.237305,1.842041,0.,0.,0.,2.87085,0.158447,0.026123,0.230469,118,72,151,84
16.299,14:55:21.299,-10.823242,-0.237305,-0.265625,0.012695,0.237305,1.842041,0.,0.,0.,2.87085,0.158447,0.026123,0.230469,118,72,151,84
16.399,14:55:21.399,-10.301758,-0.84082,-0.431641,-0.227539,1.505615,0.218994,0.,0.,0.,2.878662,0.246094,0.121826,0.214844,118,114,118,84
16.499,14:55:21.499,-10.301758,-0.84082,-0.431641,-0.227539,1.505615,0.218994,0.,0.,0.,2.878662,0.246094,0.121826,0.214844,118,114,118,84
16.599,14:55:21.599,-10.483398,-1.192383,-2.189453,-0.045654,0.395752,-0.17749,0.,0.,0.,2.87915,0.274658,0.183838,0.226562,117,112,70,85
16.699,14:55:21.699,-10.483398,-1.192383,-2.189453,-0.045654,0.395752,-0.17749,0.,0.,0.,2.87915,0.274658,0.183838,0.226562,117,112,70,85
16.799,14:55:21.799,-9.171875,0.398438,1.458008,-0.061523,-0.36377,0.218994,0.,0.,0.,2.875488,-0.253174,0.102539,0.261719,114,114,102,240
16.899,14:55:21.899,-9.171875,0.398438,1.458008,-0.061523,-0.36377,0.218994,0.,0.,0.,2.875488,-0.253174,0.102539,0.261719,114,114,102,240
16.999,14:55:21.999,-9.171875,0.398438,1.458008,-0.061523,-0.36377,0.218994,0.,0.,0.,2.875488,-0.253174,0.102539,0.261719,114,114,102,240
17.099,14:55:22.099,-9.171875,0.398438,1.458008,-0.061523,-0.36377,0.218994,0.,0.,0.,2.875488,-0.253174,0.102539,0.261719,114,114,102,240
17.199,14:55:22.199,-10.31543,0.916992,0.550781,0.,-0.086182,-0.070068,0.,0.,0.,2.888184,0.271484,-0.082764,0.246094,95,84,145,297
17.299,14:55:22.299,-10.31543,0.916992,0.550781,0.,-0.086182,-0.070068,0.,0.,0.,2.888184,0.271484,-0.082764,0.246094,95,84,145,297
17.399,14:55:22.399,-10.541016,-0.560547,-0.212891,0.098877,0.181885,-2.346436,0.,0.,0.,2.891846,0.113281,-0.04834,0.238281,92,132,106,297
17.499,14:55:22.499,-10.541016,-0.560547,-0.212891,0.098877,0.181885,-2.346436,0.,0.,0.,2.891846,0.113281,-0.04834,0.238281,92,132,106,297
17.599,14:55:22.599,-11.570312,-2.415039,-1.287109,-0.045654,0.036133,-1.024658,0.,0.,0.,2.89624,-0.053223,-0.034424,0.210938,88,140,94,297
17.699,14:55:22.699,-9.46875,-0.831055,-0.688477,-0.054199,0.119141,0.166016,0.,0.,0.,2.897949,0.036377,0.024902,0.296875,96,144,96,200
17.799,14:55:22.799,-9.166992,-0.398438,0.62207,0.008301,0.142578,-0.368164,0.,0.,0.,2.897949,-0.032959,0.044922,0.289062,99,179,90,130
17.899,14:55:22.899,-9.166992,-0.398438,0.62207,0.008301,0.142578,-0.368164,0.,0.,0.,2.897949,-0.032959,0.044922,0.289062,99,179,90,130
17.999,14:55:22.999,-10.646484,-0.041992,0.365234,-0.016846,0.589355,0.014893,0.,0.,0.,2.893555,-0.084473,0.222168,0.289062,115,210,64,88
18.099,14:55:23.099,-9.305664,0.075195,-0.484375,-0.099854,-0.61499,-0.163818,0.,0.,0.,2.891602,-0.085938,0.238281,0.285156,117,214,59,86
18.199,14:55:23.199,-9.482422,0.341797,-0.711914,-0.073242,-0.022217,-0.083008,0.,0.,0.,2.891357,-0.097168,0.191406,0.285156,120,218,56,122
18.299,14:55:23.299,-10.038086,-0.527344,0.084961,-0.171143,-1.230225,0.048828,0.,0.,0.,2.890381,-0.098877,0.138916,0.28125,119,221,53,177
18.399,14:55:23.399,-10.038086,-0.527344,0.084961,-0.171143,-1.230225,0.048828,0.,0.,0.,2.890381,-0.098877,0.138916,0.28125,119,221,53,177
18.499,14:55:23.499,-9.870117,-0.033203,0.118164,-0.11377,-0.241455,-0.04248,0.,0.,0.,2.887939,-0.089111,0.055176,0.273438,119,222,50,139
18.599,14:55:23.599,-9.870117,-0.033203,0.118164,-0.11377,-0.241455,-0.04248,0.,0.,0.,2.887939,-0.089111,0.055176,0.273438,119,222,50,139
18.699,14:55:23.699,-10.214844,-0.822266,-1.329102,-0.137207,-0.735352,0.193604,0.,0.,0.,2.887207,-0.078857,0.003662,0.269531,117,223,50,84
18.799,14:55:23.799,-10.214844,-0.822266,-1.329102,-0.137207,-0.735352,0.193604,0.,0.,0.,2.887207,-0.078857,0.003662,0.269531,117,223,50,84
18.899,14:55:23.899,-10.516602,0.902344,1.733398,-0.052002,-0.192383,0.013672,0.,0.,0.,2.885254,-0.071045,-0.030273,0.269531,116,223,50,85
18.999,14:55:23.999,-10.516602,0.902344,1.733398,-0.052002,-0.192383,0.013672,0.,0.,0.,2.885254,-0.071045,-0.030273,0.269531,116,223,50,85
19.099,14:55:24.099,-10.057617,-1.744141,-1.291016,0.043457,2.188965,0.153076,0.,0.,0.,2.884277,-0.053955,0.049316,0.273438,114,222,53,88
19.199,14:55:24.199,-10.057617,-1.744141,-1.291016,0.043457,2.188965,0.153076,0.,0.,0.,2.884277,-0.053955,0.049316,0.273438,114,222,53,88
19.299,14:55:24.299,-9.511719,-0.507812,0.046875,-0.052979,-0.120117,0.030762,0.,0.,0.,2.884277,-0.004883,0.073975,0.308594,105,214,64,104
19.399,14:55:24.399,-9.511719,-0.507812,0.046875,-0.052979,-0.120117,0.030762,0.,0.,0.,2.884277,-0.004883,0.073975,0.308594,105,214,64,104
19.499,14:55:24.499,-9.386719,-0.084961,0.061523,-0.040283,-0.240479,0.051025,0.,0.,0.,2.885254,0.004395,0.044678,0.3125,101,209,67,106
19.599,14:55:24.599,-9.386719,-0.084961,0.061523,-0.040283,-0.240479,0.051025,0.,0.,0.,2.885254,0.004395,0.044678,0.3125,101,209,67,106
19.699,14:55:24.699,-8.587891,-0.351562,0.526367,-0.024414,-1.579102,0.148926,0.,0.,0.,2.885498,0.008545,0.005615,0.316406,95,206,73,109
19.799,14:55:24.799,-8.587891,-0.351562,0.526367,-0.024414,-1.579102,0.148926,0.,0.,0.,2.885498,0.008545,0.005615,0.316406,95,206,73,109
19.899,14:55:24.899,-9.793945,1.069336,0.987305,0.028564,-0.180908,0.103027,0.,0.,0.,2.885986,0.036865,-0.101562,0.296875,83,199,45,164
19.999,14:55:24.999,-9.793945,1.069336,0.987305,0.028564,-0.180908,0.103027,0.,0.,0.,2.885986,0.036865,-0.101562,0.296875,83,199,45,164
20.099,14:55:25.099,-10.545898,-0.84082,0.702148,0.008301,0.401123,-2.343262,0.,0.,0.,2.883789,-0.050781,-0.070068,0.3125,80,198,78,124
20.199,14:55:25.199,-10.545898,-0.84082,0.702148,0.008301,0.401123,-2.343262,0.,0.,0.,2.883789,-0.050781,-0.070068,0.3125,80,198,78,124
20.299,14:55:25.299,-10.545898,-0.84082,0.702148,0.008301,0.401123,-2.343262,0.,0.,0.,2.883789,-0.050781,-0.070068,0.3125,80,198,78,124
20.399,14:55:25.399,-10.382812,2.219727,0.697266,0.02002,-0.000977,1.73877,0.,0.,0.,2.885742,0.114746,-0.02002,0.304688,80,118,97,124
20.499,14:55:25.499,-10.382812,2.219727,0.697266,0.02002,-0.000977,1.73877,0.,0.,0.,2.885742,0.114746,-0.02002,0.304688,80,118,97,124
20.599,14:55:25.599,-10.076172,0.988281,1.59082,0.051025,0.041504,0.02002,0.,0.,0.,2.908691,0.069824,0.040771,0.316406,92,182,109,110
20.699,14:55:25.699,-10.076172,0.988281,1.59082,0.051025,0.041504,0.02002,0.,0.,0.,2.908691,0.069824,0.040771,0.316406,92,182,109,110
20.799,14:55:25.799,-9.272461,-0.759766,-1.101562,0.011475,0.257324,-0.306396,0.,0.,0.,2.913086,0.054932,0.05542,0.316406,97,182,110,108
20.899,14:55:25.899,-9.272461,-0.759766,-1.101562,0.011475,0.257324,-0.306396,0.,0.,0.,2.913086,0.054932,0.05542,0.316406,97,182,110,108
20.999,14:55:25.999,-10.057617,0.351562,-2.056641,-0.008301,0.030762,-0.125488,0.,0.,0.,2.91626,0.040527,0.072266,0.316406,101,183,109,212
21.099,14:55:26.099,-10.057617,0.351562,-2.056641,-0.008301,0.030762,-0.125488,0.,0.,0.,2.91626,0.040527,0.072266,0.316406,101,183,109,212
21.199,14:55:26.199,-9.866211,0.46582,-1.040039,0.026367,0.199951,-0.240479,0.,0.,0.,2.918701,0.022461,0.085449,0.316406,107,184,109,282
21.299,14:55:26.299,-9.866211,0.46582,-1.040039,0.026367,0.199951,-0.240479,0.,0.,0.,2.918701,0.022461,0.085449,0.316406,107,184,109,282
21.399,14:55:26.399,-9.066406,0.175781,-1.300781,-0.00415,0.070068,-0.125488,0.,0.,0.,2.921143,0.009521,0.096191,0.328125,112,187,107,274
21.499,14:55:26.499,-9.166992,0.170898,-0.607422,-0.009521,0.149902,-0.19043,0.,0.,0.,2.922119,-0.000488,0.107178,0.335938,118,154,105,268
21.599,14:55:26.599,-10.646484,-0.008789,-0.464844,-0.046631,-0.005127,-0.103027,0.,0.,0.,2.926025,-0.029053,0.10791,0.3125,135,205,94,111
21.699,14:55:26.699,-10.244141,0.099609,-1.305664,-0.036133,-0.141357,-0.186035,0.,0.,0.,2.925049,-0.054443,0.062256,0.316406,143,158,82,212
21.799,14:55:26.799,-9.889648,1.188477,1.547852,-0.02002,-0.045654,-0.001953,0.,0.,0.,2.924316,-0.068115,0.053467,0.320312,144,217,79,104
21.899,14:55:26.899,-9.889648,1.188477,1.547852,-0.02002,-0.045654,-0.001953,0.,0.,0.,2.924316,-0.068115,0.053467,0.320312,144,217,79,104
21.999,14:55:26.999,-10.435547,0.417969,1.040039,-0.04248,-0.141357,-0.046631,0.,0.,0.,2.918945,-0.043457,0.030029,0.339844,153,135,64,155
22.099,14:55:27.099,-10.435547,0.417969,1.040039,-0.04248,-0.141357,-0.046631,0.,0.,0.,2.918945,-0.043457,0.030029,0.339844,153,135,64,155
22.199,14:55:27.199,-10.674805,0.479492,-1.015625,-0.037109,0.010498,0.123291,0.,0.,0.,2.917236,-0.040527,0.002686,0.34375,153,135,64,137
22.299,14:55:27.299,-10.674805,0.479492,-1.015625,-0.037109,0.010498,0.123291,0.,0.,0.,2.917236,-0.040527,0.002686,0.34375,153,135,64,137
22.399,14:55:27.399,-9.089844,-0.170898,-1.466797,-0.026367,-0.094482,0.070068,0.,0.,0.,2.91626,-0.036621,0.023438,0.34375,154,135,65,83
22.499,14:55:27.499,-9.089844,-0.170898,-1.466797,-0.026367,-0.094482,0.070068,0.,0.,0.,2.91626,-0.036621,0.023438,0.34375,154,135,65,83
22.599,14:55:27.599,-9.089844,-0.170898,-1.466797,-0.026367,-0.094482,0.070068,0.,0.,0.,2.91626,-0.036621,0.023438,0.34375,154,135,65,83
22.699,14:55:27.699,-10.114258,-1.021484,-1.675781,-0.013672,1.123779,0.072266,0.,0.,0.,2.915771,-0.009033,0.175537,0.355469,152,216,69,140
22.799,14:55:27.799,-9.717773,-0.161133,0.336914,-0.029785,0.278809,-0.003174,0.,0.,0.,2.917236,-0.004639,0.226562,0.355469,153,214,70,250
22.899,14:55:27.899,-9.851562,0.517578,-1.111328,-0.011475,-0.039307,0.030762,0.,0.,0.,2.910889,0.009521,-0.057373,0.363281,148,189,78,75
22.999,14:55:27.999,-9.678711,0.084961,0.066406,-0.025391,0.702148,0.028564,0.,0.,0.,2.9104,0.009766,-0.005859,0.367188,146,136,80,75
23.099,14:55:28.099,-9.779297,0.217773,0.474609,-0.00415,0.434082,-0.019043,0.,0.,0.,2.911865,0.013672,0.049561,0.375,142,135,83,77
23.199,14:55:28.199,-9.779297,0.217773,0.474609,-0.00415,0.434082,-0.019043,0.,0.,0.,2.911865,0.013672,0.049561,0.375,142,135,83,77
23.299,14:55:28.299,-10.53125,0.118164,-0.260742,-0.029785,1.361084,0.060547,0.,0.,0.,2.912354,0.017578,0.101562,0.378906,136,183,84,78
23.399,14:55:28.399,-10.53125,0.118164,-0.260742,-0.029785,1.361084,0.060547,0.,0.,0.,2.912354,0.017578,0.101562,0.378906,136,183,84,78
23.499,14:55:28.499,-10.249023,0.18457,-0.745117,-0.064697,0.149902,0.027588,0.,0.,0.,2.913574,0.019043,0.193359,0.382812,136,199,84,81
23.599,14:55:28.599,-10.249023,0.18457,-0.745117,-0.064697,0.149902,0.027588,0.,0.,0.,2.913574,0.019043,0.193359,0.382812,136,199,84,81
23.699,14:55:28.699,-9.492188,-0.993164,-0.474609,-0.052979,-0.933105,-0.141357,0.,0.,0.,2.912598,0.018311,0.189209,0.386719,137,198,85,153
23.799,14:55:28.799,-10.071289,0.974609,-0.664062,-0.016846,0.832031,-0.127686,0.,0.,0.,2.912354,-0.001953,0.013428,0.394531,129,194,83,89
23.899,14:55:28.899,-10.071289,0.974609,-0.664062,-0.016846,0.832031,-0.127686,0.,0.,0.,2.912354,-0.001953,0.013428,0.394531,129,194,83,89
23.999,14:55:28.999,-8.956055,-0.993164,-0.118164,-0.012695,0.494629,-0.081787,0.,0.,0.,2.914062,-0.018066,0.137695,0.398438,127,194,85,90
24.099,14:55:29.099,-8.956055,-0.993164,-0.118164,-0.012695,0.494629,-0.081787,0.,0.,0.,2.914062,-0.018066,0.137695,0.398438,127,194,85,90
24.199,14:55:29.199,-9.861328,0.199219,0.764648,-0.048828,-0.161621,-0.084961,0.,0.,0.,2.914551,-0.022217,0.157471,0.402344,127,195,85,201
24.299,14:55:29.299,-9.861328,0.199219,0.764648,-0.048828,-0.161621,-0.084961,0.,0.,0.,2.914551,-0.022217,0.157471,0.402344,127,195,85,201
24.399,14:55:29.399,-9.822266,-1.021484,-0.678711,-0.054199,-0.049805,-0.087158,0.,0.,0.,2.914307,-0.020264,0.114258,0.40625,126,196,83,275
24.499,14:55:29.499,-9.822266,-1.021484,-0.678711,-0.054199,-0.049805,-0.087158,0.,0.,0.,2.914307,-0.020264,0.114258,0.40625,126,196,83,275
24.599,14:55:29.599,-9.975586,0.665039,1.609375,-0.061523,-1.689941,0.116943,0.,0.,0.,2.914307,-0.019287,0.052734,0.40625,126,197,82,277
24.699,14:55:29.699,-9.975586,0.665039,1.609375,-0.061523,-1.689941,0.116943,0.,0.,0.,2.914307,-0.019287,0.052734,0.40625,126,197,82,277
24.799,14:55:29.799,-9.521484,0.170898,0.726562,-0.019043,-0.163818,0.019043,0.,0.,0.,2.912598,-0.020264,-0.029785,0.402344,124,198,82,279
24.899,14:55:29.899,-9.521484,0.170898,0.726562,-0.019043,-0.163818,0.019043,0.,0.,0.,2.912598,-0.020264,-0.029785,0.402344,124,198,82,279
24.999,14:55:29.999,-9.521484,0.170898,0.726562,-0.019043,-0.163818,0.019043,0.,0.,0.,2.912598,-0.020264,-0.029785,0.402344,124,198,82,279
25.099,14:55:30.099,-9.917969,-0.303711,-0.806641,-0.051025,-0.034912,0.022217,0.,0.,0.,2.907471,-0.023438,-0.008789,0.398438,120,199,82,284
25.199,14:55:30.199,-9.917969,-0.303711,-0.806641,-0.051025,-0.034912,0.022217,0.,0.,0.,2.907471,-0.023438,-0.008789,0.398438,120,199,82,284
25.299,14:55:30.299,-9.995117,0.484375,0.507812,-0.05835,0.253174,-0.056396,0.,0.,0.,2.903809,-0.02124,0.027344,0.398438,118,199,74,172
25.399,14:55:30.399,-9.995117,0.484375,0.507812,-0.05835,0.253174,-0.056396,0.,0.,0.,2.903809,-0.02124,0.027344,0.398438,118,199,74,172
25.499,14:55:30.499,-9.803711,-0.356445,-0.522461,-0.062744,0.243652,-0.07959,0.,0.,0.,2.900879,-0.019287,0.0354,0.398438,115,199,64,98
25.599,14:55:30.599,-10.760742,1.27832,0.204102,-0.024414,0.627686,-0.323486,0.,0.,0.,2.897217,-0.023926,0.047852,0.398438,114,200,70,98
25.699,14:55:30.699,-9.348633,-0.579102,-1.134766,-0.041504,0.111572,-0.160645,0.,0.,0.,2.893311,-0.070312,0.130615,0.402344,113,199,81,98
25.799,14:55:30.799,-9.348633,-0.579102,-1.134766,-0.041504,0.111572,-0.160645,0.,0.,0.,2.893311,-0.070312,0.130615,0.402344,113,199,81,98
25.899,14:55:30.899,-9.875,0.517578,1.37207,-0.044678,0.025391,0.553223,0.,0.,0.,2.889648,-0.071045,0.149658,0.402344,113,199,80,99
25.999,14:55:30.999,-9.875,0.517578,1.37207,-0.044678,0.025391,0.553223,0.,0.,0.,2.889648,-0.071045,0.149658,0.402344,113,199,80,99
26.099,14:55:31.099,-10.253906,-0.213867,-0.958984,-0.055176,0.037109,0.111572,0.,0.,0.,2.888184,-0.018311,0.110596,0.398438,111,199,79,101
26.199,14:55:31.199,-10.253906,-0.213867,-0.958984,-0.055176,0.037109,0.111572,0.,0.,0.,2.888184,-0.018311,0.110596,0.398438,111,199,79,101
26.299,14:55:31.299,-9.875,0.351562,0.242188,-0.047852,-0.508545,-0.02124,0.,0.,0.,2.888916,0.003662,0.090332,0.394531,110,199,79,214
26.399,14:55:31.399,-9.741211,0.12793,-0.731445,-0.028564,-0.148926,0.143555,0.,0.,0.,2.890381,0.006592,0.074707,0.394531,107,197,80,290
26.499,14:55:31.499,-9.353516,0.142578,-0.441406,-0.019043,-1.291748,-0.049805,0.,0.,0.,2.890381,-0.000488,0.00708,0.394531,104,196,80,290
26.599,14:55:31.599,-9.678711,-0.075195,-0.34668,-0.02002,-0.293701,-0.144531,0.,0.,0.,2.890137,-0.005859,-0.060303,0.390625,101,196,81,254
26.699,14:55:31.699,-10.095703,0.679688,-0.678711,0.005127,0.570312,-0.115967,0.,0.,0.,2.891602,-0.00415,-0.060791,0.390625,100,197,81,146
26.799,14:55:31.799,-10.09082,0.603516,1.705078,-0.025391,-0.019043,0.087158,0.,0.,0.,2.891602,-0.003662,-0.042236,0.394531,100,195,82,111
26.899,14:55:31.899,-10.09082,0.603516,1.705078,-0.025391,-0.019043,0.087158,0.,0.,0.,2.891602,-0.003662,-0.042236,0.394531,100,195,82,111
26.999,14:55:31.999,-9.827148,0.850586,-1.201172,-0.003174,0.220215,0.011475,0.,0.,0.,2.89209,-0.009277,-0.022949,0.390625,98,194,82,111
27.099,14:55:32.099,-9.827148,0.850586,-1.201172,-0.003174,0.220215,0.011475,0.,0.,0.,2.89209,-0.009277,-0.022949,0.390625,98,194,82,111
27.199,14:55:32.199,-10.105469,-0.293945,0.421875,0.,0.208496,-0.120117,0.,0.,0.,2.892822,-0.007812,0.000244,0.386719,93,193,83,112
27.299,14:55:32.299,-10.105469,-0.293945,0.421875,0.,0.208496,-0.120117,0.,0.,0.,2.892822,-0.007812,0.000244,0.386719,93,193,83,112
27.399,14:55:32.399,-10.047852,-0.432617,-0.408203,-0.030762,0.011475,-0.04248,0.,0.,0.,2.893799,-0.006348,0.007568,0.386719,91,192,83,112
27.499,14:55:32.499,-10.047852,-0.432617,-0.408203,-0.030762,0.011475,-0.04248,0.,0.,0.,2.893799,-0.006348,0.007568,0.386719,91,192,83,112
27.599,14:55:32.599,-9.894531,-0.275391,1.172852,-0.006348,-0.030762,0.052002,0.,0.,0.,2.895264,-0.008301,0.01001,0.386719,91,190,85,149
27.699,14:55:32.699,-9.894531,-0.275391,1.172852,-0.006348,-0.030762,0.052002,0.,0.,0.,2.895264,-0.008301,0.01001,0.386719,91,190,85,149
27.799,14:55:32.799,-9.660156,0.755859,0.797852,0.029785,0.048828,0.057373,0.,0.,0.,2.897461,-0.006104,0.01001,0.386719,91,190,86,260
27.899,14:55:32.899,-10.038086,-0.260742,0.50293,-0.025391,0.089355,-0.069092,0.,0.,0.,2.898438,-0.002441,0.009766,0.382812,92,188,88,297
27.999,14:55:32.999,-10.55957,-0.384766,-0.630859,-0.013672,0.289307,0.070068,0.,0.,0.,2.900391,0.004395,0.018555,0.375,93,188,89,296
28.099,14:55:33.099,-8.472656,0.094727,-0.987305,0.007324,0.145752,-0.070068,0.,0.,0.,2.907715,0.008057,0.061035,0.457031,103,128,92,285
28.199,14:55:33.199,-9.914062,-0.123047,0.322266,-0.014893,0.047852,-0.005127,0.,0.,0.,2.907959,0.00708,0.066406,0.441406,107,161,94,282
28.299,14:55:33.299,-9.914062,-0.123047,0.322266,-0.014893,0.047852,-0.005127,0.,0.,0.,2.907959,0.00708,0.066406,0.441406,107,161,94,282
28.399,14:55:33.399,-10.209961,0.460938,-0.113281,-0.012695,0.074463,0.064697,0.,0.,0.,2.909424,0.005127,0.070312,0.425781,111,183,94,280
28.499,14:55:33.499,-10.209961,0.460938,-0.113281,-0.012695,0.074463,0.064697,0.,0.,0.,2.909424,0.005127,0.070312,0.425781,111,183,94,280
28.599,14:55:33.599,-11.042969,0.84082,0.275391,0.000977,0.00415,-0.065918,0.,0.,0.,2.910645,0.010498,0.077881,0.40625,116,183,94,279
28.699,14:55:33.699,-11.042969,0.84082,0.275391,0.000977,0.00415,-0.065918,0.,0.,0.,2.910645,0.010498,0.077881,0.40625,116,183,94,279
28.799,14:55:33.799,-10.928711,0.289062,-1.09668,-0.018066,0.098877,-0.070068,0.,0.,0.,2.911621,0.009277,0.087158,0.386719,117,184,94,278
28.899,14:55:33.899,-10.526367,0.318359,-0.53125,-0.006348,0.083008,-0.064697,0.,0.,0.,2.914062,0.002197,0.094971,0.378906,120,184,94,274
28.999,14:55:33.999,-10.258789,0.827148,0.944336,0.016846,-0.072266,-0.158447,0.,0.,0.,2.914795,-0.001709,0.095703,0.375,121,184,94,270
29.099,14:55:34.099,-10.258789,0.827148,0.944336,0.016846,-0.072266,-0.158447,0.,0.,0.,2.914795,-0.001709,0.095703,0.375,121,184,94,270
29.199,14:55:34.199,-10.301758,-0.398438,-0.075195,-0.062744,-0.061523,-0.025391,0.,0.,0.,2.915039,-0.004395,0.095703,0.367188,124,184,94,269
29.299,14:55:34.299,-10.301758,-0.398438,-0.075195,-0.062744,-0.061523,-0.025391,0.,0.,0.,2.915039,-0.004395,0.095703,0.367188,124,184,94,269
29.399,14:55:34.399,-9.381836,-0.931641,-0.250977,-0.041504,-0.039307,-0.013672,0.,0.,0.,2.911621,-0.014893,0.058594,0.394531,130,186,92,266
29.499,14:55:34.499,-9.381836,-0.931641,-0.250977,-0.041504,-0.039307,-0.013672,0.,0.,0.,2.911621,-0.014893,0.058594,0.394531,130,186,92,266
29.599,14:55:34.599,-8.956055,0.298828,0.104492,-0.031738,0.05835,-0.024414,0.,0.,0.,2.912109,-0.015137,0.054688,0.421875,130,187,92,266
29.699,14:55:34.699,-8.956055,0.298828,0.104492,-0.031738,0.05835,-0.024414,0.,0.,0.,2.912109,-0.015137,0.054688,0.421875,130,187,92,266
29.799,14:55:34.799,-8.563477,0.170898,1.751953,-0.022217,0.022217,0.00415,0.,0.,0.,2.911865,-0.017578,0.051758,0.445312,132,188,91,266
29.899,14:55:34.899,-8.563477,0.170898,1.751953,-0.022217,0.022217,0.00415,0.,0.,0.,2.911865,-0.017578,0.051758,0.445312,132,188,91,266
29.999,14:55:34.999,-9.625977,0.,-2.194336,-0.023193,-0.030762,-0.174316,0.,0.,0.,2.913818,-0.020508,0.046631,0.464844,132,135,87,267
30.099,14:55:35.099,-10.047852,0.24707,0.080078,-0.031738,-0.023193,-0.088135,0.,0.,0.,2.913086,-0.029297,0.046875,0.453125,133,121,86,267
30.199,14:55:35.199,-9.851562,-1.354492,-1.637695,-0.034912,-0.034912,0.038086,0.,0.,0.,2.912842,-0.029541,0.047363,0.4375,133,132,85,269
30.299,14:55:35.299,-10.430664,1.150391,0.541016,-0.019043,-0.009521,0.070068,0.,0.,0.,2.912842,-0.028809,0.046875,0.417969,133,177,84,270
30.399,14:55:35.399,-10.325195,-0.318359,-1.851562,0.007324,-0.062744,-0.045654,0.,0.,0.,2.912842,-0.029541,0.048828,0.402344,130,193,84,271
30.499,14:55:35.499,-10.133789,-0.270508,-0.707031,-0.047852,0.067871,-0.088135,0.,0.,0.,2.913574,-0.028076,0.047363,0.398438,128,193,83,271
30.599,14:55:35.599,-10.133789,-0.270508,-0.707031,-0.047852,0.067871,-0.088135,0.,0.,0.,2.913574,-0.028076,0.047363,0.398438,128,193,83,271
30.699,14:55:35.699,-10.392578,0.099609,0.431641,-0.033936,-0.104248,0.063721,0.,0.,0.,2.913818,-0.0271,0.04541,0.398438,126,169,83,271
30.799,14:55:35.799,-10.392578,0.099609,0.431641,-0.033936,-0.104248,0.063721,0.,0.,0.,2.913818,-0.0271,0.04541,0.398438,126,169,83,271
30.899,14:55:35.899,-10.229492,1.230469,-0.123047,0.003174,-0.048828,-0.008301,0.,0.,0.,2.913818,-0.026611,0.046631,0.40625,126,100,83,162
30.999,14:55:35.999,-10.229492,1.230469,-0.123047,0.003174,-0.048828,-0.008301,0.,0.,0.,2.913818,-0.026611,0.046631,0.40625,126,100,83,162
31.099,14:55:36.099,-9.501953,-0.275391,1.742188,-0.007324,0.166016,-0.088135,0.,0.,0.,2.913818,-0.021973,0.044434,0.414062,126,99,83,90
31.199,14:55:36.199,-9.501953,-0.275391,1.742188,-0.007324,0.166016,-0.088135,0.,0.,0.,2.913818,-0.021973,0.044434,0.414062,126,99,83,90
31.299,14:55:36.299,-9.84668,-0.204102,1.030273,-0.011475,-0.026367,0.033936,0.,0.,0.,2.914551,-0.020752,0.041748,0.421875,126,168,84,199
31.399,14:55:36.399,-9.84668,-0.204102,1.030273,-0.011475,-0.026367,0.033936,0.,0.,0.,2.914551,-0.020752,0.041748,0.421875,126,168,84,199
31.499,14:55:36.499,-9.454102,0.080078,-0.75,-0.018066,0.04248,0.027588,0.,0.,0.,2.916504,-0.014648,0.047119,0.429688,122,189,87,165
31.599,14:55:36.599,-10.229492,-0.166016,-0.72168,0.005127,0.140381,0.109375,0.,0.,0.,2.919189,-0.007568,0.049072,0.421875,121,188,88,93
31.699,14:55:36.699,-9.587891,0.12793,0.379883,-0.027588,-0.104248,-0.00415,0.,0.,0.,2.922363,0.,0.055908,0.402344,121,187,89,203
31.799,14:55:36.799,-9.587891,0.12793,0.379883,-0.027588,-0.104248,-0.00415,0.,0.,0.,2.922363,0.,0.055908,0.402344,121,187,89,203
31.899,14:55:36.899,-10.473633,0.865234,-0.408203,0.019043,-0.176514,-0.073242,0.,0.,0.,2.925049,0.000244,0.055176,0.425781,120,185,91,277
31.999,14:55:36.999,-10.473633,0.865234,-0.408203,0.019043,-0.176514,-0.073242,0.,0.,0.,2.925049,0.000244,0.055176,0.425781,120,185,91,277
32.099,14:55:37.099,-9.736328,-0.527344,-0.375,-0.006348,0.175537,-0.031738,0.,0.,0.,2.92749,0.000244,0.050537,0.460938,120,184,92,276
32.199,14:55:37.199,-9.736328,-0.527344,-0.375,-0.006348,0.175537,-0.031738,0.,0.,0.,2.92749,0.000244,0.050537,0.460938,120,184,92,276
32.299,14:55:37.299,-9.119141,-0.151367,-1.191406,-0.010498,0.007324,0.033936,0.,0.,0.,2.928223,0.003662,0.044678,0.480469,118,182,94,276
32.399,14:55:37.399,-9.119141,-0.151367,-1.191406,-0.010498,0.007324,0.033936,0.,0.,0.,2.928223,0.003662,0.044678,0.480469,118,182,94,276
32.499,14:55:37.499,-10.55957,-0.179688,-0.089844,0.091309,0.134033,0.436279,0.,0.,0.,2.936768,0.208496,0.032959,0.390625,113,177,99,278
32.599,14:55:37.599,-10.765625,0.041992,0.308594,0.122314,0.158447,-4.66748,0.,0.,0.,2.9375,0.056885,0.038574,0.40625,113,177,100,278
32.699,14:55:37.699,-9.693359,-1.130859,-1.524414,-0.089355,-0.073242,-1.821777,0.,0.,0.,2.94043,-0.12085,0.044678,0.433594,113,179,99,278
32.799,14:55:37.799,-9.693359,-1.130859,-1.524414,-0.089355,-0.073242,-1.821777,0.,0.,0.,2.94043,-0.12085,0.044678,0.433594,113,179,99,278
32.899,14:55:37.899,-9.272461,-0.499023,-0.18457,-0.13501,-0.009521,1.364258,0.,0.,0.,2.94043,-0.14624,0.04834,0.460938,113,181,98,278
32.999,14:55:37.999,-9.272461,-0.499023,-0.18457,-0.13501,-0.009521,1.364258,0.,0.,0.,2.94043,-0.14624,0.04834,0.460938,113,181,98,278
33.099,14:55:38.099,-10.171875,0.626953,-0.070312,-0.02124,0.103027,0.76709,0.,0.,0.,2.938232,-0.141846,0.044678,0.488281,114,185,94,278
33.199,14:55:38.199,-10.171875,0.626953,-0.070312,-0.02124,0.103027,0.76709,0.,0.,0.,2.938232,-0.141846,0.044678,0.488281,114,185,94,278
33.299,14:55:38.299,-9.195312,0.15625,0.28418,-0.022217,-0.013672,-0.202148,0.,0.,0.,2.935547,-0.108398,0.043945,0.503906,114,188,92,277
33.399,14:55:38.399,-9.770508,-0.003906,-0.298828,-0.054199,0.05957,0.001953,0.,0.,0.,2.936035,-0.053955,0.043701,0.511719,114,190,90,275
33.499,14:55:38.499,-9.574219,0.046875,0.588867,-0.052979,-0.006348,0.508545,0.,0.,0.,2.935303,-0.047363,0.043701,0.511719,114,189,89,274
33.599,14:55:38.599,-10.09082,-0.056641,0.583984,-0.02124,0.024414,0.093506,0.,0.,0.,2.934082,-0.046875,0.045654,0.511719,114,189,90,273
33.699,14:55:38.699,-10.09082,-0.056641,0.583984,-0.02124,0.024414,0.093506,0.,0.,0.,2.934082,-0.046875,0.045654,0.511719,114,189,90,273
33.799,14:55:38.799,-10.344727,0.750977,1.010742,-0.060547,0.0979,0.338379,0.,0.,0.,2.932129,-0.002441,0.043701,0.527344,117,183,93,272
33.899,14:55:38.899,-10.344727,0.750977,1.010742,-0.060547,0.0979,0.338379,0.,0.,0.,2.932129,-0.002441,0.043701,0.527344,117,183,93,272
33.999,14:55:38.999,-9.071289,0.936523,0.099609,-0.024414,0.038086,0.045654,0.,0.,0.,2.931885,0.000977,0.047119,0.527344,120,182,94,272
34.099,14:55:39.099,-9.071289,0.936523,0.099609,-0.024414,0.038086,0.045654,0.,0.,0.,2.931885,0.000977,0.047119,0.527344,120,182,94,272
34.199,14:55:39.199,-9.569336,0.336914,0.298828,0.005127,0.111572,-0.0979,0.,0.,0.,2.932861,0.009521,0.05249,0.5,123,180,96,270
34.299,14:55:39.299,-9.569336,0.336914,0.298828,0.005127,0.111572,-0.0979,0.,0.,0.,2.932861,0.009521,0.05249,0.5,123,180,96,270
34.399,14:55:39.399,-9.712891,0.056641,0.597656,-0.052979,0.091309,-0.062744,0.,0.,0.,2.933594,0.014648,0.05542,0.492188,122,179,99,269
34.499,14:55:39.499,-9.712891,0.056641,0.597656,-0.052979,0.091309,-0.062744,0.,0.,0.,2.933594,0.014648,0.05542,0.492188,122,179,99,269
34.599,14:55:39.599,-10.258789,1.326172,-0.051758,-0.019043,-0.015869,0.0979,0.,0.,0.,2.933594,0.012939,0.055176,0.488281,122,176,102,267
34.699,14:55:39.699,-9.602539,-0.075195,0.265625,-0.012695,-0.003174,-0.000977,0.,0.,0.,2.933838,0.019775,0.053223,0.484375,122,175,103,265
34.799,14:55:39.799,-10.239258,-1.425781,-1.685547,-0.034912,-0.094482,0.022217,0.,0.,0.,2.934082,0.023193,0.050537,0.480469,123,173,104,264
34.899,14:55:39.899,-9.851562,1.164062,0.726562,0.031738,0.029785,-0.07959,0.,0.,0.,2.93335,0.026367,0.046631,0.480469,124,173,105,264
34.999,14:55:39.999,-10.047852,-0.18457,0.844727,-0.031738,0.07959,-0.024414,0.,0.,0.,2.933838,0.028076,0.043945,0.484375,126,172,107,262
35.099,14:55:40.099,-10.100586,0.855469,-0.313477,-0.005127,0.,-0.075439,0.,0.,0.,2.935547,0.016602,0.041992,0.496094,131,146,108,257
35.199,14:55:40.199,-10.100586,0.855469,-0.313477,-0.005127,0.,-0.075439,0.,0.,0.,2.935547,0.016602,0.041992,0.496094,131,146,108,257
35.299,14:55:40.299,-10.100586,0.855469,-0.313477,-0.005127,0.,-0.075439,0.,0.,0.,2.935547,0.016602,0.041992,0.496094,131,146,108,257
35.399,14:55:40.399,-9.109375,-0.503906,0.242188,-0.031738,0.025391,-0.012695,0.,0.,0.,2.933838,-0.009521,0.046143,0.503906,145,177,102,244
35.499,14:55:40.499,-9.109375,-0.503906,0.242188,-0.031738,0.025391,-0.012695,0.,0.,0.,2.933838,-0.009521,0.046143,0.503906,145,177,102,244
35.599,14:55:40.599,-9.84668,-0.46582,-0.944336,-0.02124,0.027588,-0.17334,0.,0.,0.,2.933105,-0.010742,0.046631,0.503906,148,178,101,241
35.699,14:55:40.699,-9.84668,-0.46582,-0.944336,-0.02124,0.027588,-0.17334,0.,0.,0.,2.933105,-0.010742,0.046631,0.503906,148,178,101,241
35.799,14:55:40.799,-9.84668,-0.46582,-0.944336,-0.02124,0.027588,-0.17334,0.,0.,0.,2.933105,-0.010742,0.046631,0.503906,148,178,101,241
35.899,14:55:40.899,-9.526367,-0.24707,-0.118164,-0.013672,0.084961,0.006348,0.,0.,0.,2.93457,-0.024658,0.04541,0.539062,154,183,97,232
35.999,14:55:40.999,-9.526367,-0.24707,-0.118164,-0.013672,0.084961,0.006348,0.,0.,0.,2.93457,-0.024658,0.04541,0.539062,154,183,97,232
36.099,14:55:41.099,-9.526367,-0.24707,-0.118164,-0.013672,0.084961,0.006348,0.,0.,0.,2.93457,-0.024658,0.04541,0.539062,154,183,97,232
36.199,14:55:41.199,-10.450195,-0.59375,-2.003906,-0.015869,0.030762,-0.034912,0.,0.,0.,2.934814,-0.026367,0.044922,0.457031,167,185,92,219
36.299,14:55:41.299,-10.450195,-0.59375,-2.003906,-0.015869,0.030762,-0.034912,0.,0.,0.,2.934814,-0.026367,0.044922,0.457031,167,185,92,219
36.399,14:55:41.399,-8.975586,0.484375,-1.091797,-0.014893,0.04248,0.076416,0.,0.,0.,2.939697,-0.016113,0.043457,0.488281,186,182,91,202
36.499,14:55:41.499,-8.975586,0.484375,-1.091797,-0.014893,0.04248,0.076416,0.,0.,0.,2.939697,-0.016113,0.043457,0.488281,186,182,91,202
36.599,14:55:41.599,-10.516602,-0.222656,0.726562,-0.043457,0.083984,-0.032959,0.,0.,0.,2.941406,-0.000977,0.047852,0.484375,203,176,94,187
36.699,14:55:41.699,-10.516602,-0.222656,0.726562,-0.043457,0.083984,-0.032959,0.,0.,0.,2.941406,-0.000977,0.047852,0.484375,203,176,94,187
36.799,14:55:41.799,-9.587891,0.499023,0.854492,0.005127,0.090332,-0.11792,0.,0.,0.,2.939697,0.005859,0.04541,0.492188,227,170,94,165
36.899,14:55:41.899,-9.587891,0.499023,0.854492,0.005127,0.090332,-0.11792,0.,0.,0.,2.939697,0.005859,0.04541,0.492188,227,170,94,165
36.999,14:55:41.999,-10.071289,0.170898,-0.037109,-0.019043,0.075439,-0.180908,0.,0.,0.,2.940186,-0.009521,0.050049,0.507812,236,168,92,156
37.099,14:55:42.099,-10.071289,0.170898,-0.037109,-0.019043,0.075439,-0.180908,0.,0.,0.,2.940186,-0.009521,0.050049,0.507812,236,168,92,156
37.199,14:55:42.199,-9.942383,0.650391,-0.242188,-0.009521,0.02002,-0.083008,0.,0.,0.,2.941162,-0.015137,0.052002,0.507812,242,167,91,153
37.299,14:55:42.299,-10.114258,0.113281,1.604492,-0.000977,0.073242,-0.025391,0.,0.,0.,2.941406,-0.018799,0.053223,0.507812,245,167,90,147
37.399,14:55:42.399,-9.879883,-0.046875,-0.707031,-0.055176,0.04248,-0.083984,0.,0.,0.,2.940918,-0.022949,0.052734,0.519531,250,166,90,143
37.499,14:55:42.499,-10.249023,0.726562,0.303711,-0.006348,0.05835,-0.038086,0.,0.,0.,2.941406,-0.020752,0.051758,0.511719,254,166,89,137
37.599,14:55:42.599,-10.249023,0.726562,0.303711,-0.006348,0.05835,-0.038086,0.,0.,0.,2.941406,-0.020752,0.051758,0.511719,254,166,89,137
37.699,14:55:42.699,-9.569336,0.541016,-0.630859,-0.027588,-0.048828,0.009521,0.,0.,0.,2.940918,-0.018555,0.052979,0.507812,260,166,89,134
37.799,14:55:42.799,-9.569336,0.541016,-0.630859,-0.027588,-0.048828,0.009521,0.,0.,0.,2.940918,-0.018555,0.052979,0.507812,260,166,89,134
37.899,14:55:42.899,-9.875,-1.03125,-0.864258,-0.048828,0.075439,0.014893,0.,0.,0.,2.940674,-0.016602,0.053955,0.503906,263,166,88,130
37.999,14:55:42.999,-9.875,-1.03125,-0.864258,-0.048828,0.075439,0.014893,0.,0.,0.,2.940674,-0.016602,0.053955,0.503906,263,166,88,130
38.099,14:55:43.099,-9.755859,0.113281,-0.488281,-0.045654,0.108398,-0.060547,0.,0.,0.,2.936768,-0.01416,0.054199,0.480469,278,168,87,113
38.199,14:55:43.199,-9.755859,0.113281,-0.488281,-0.045654,0.108398,-0.060547,0.,0.,0.,2.936768,-0.01416,0.054199,0.480469,278,168,87,113
38.299,14:55:43.299,-10.209961,0.003906,0.992188,-0.036133,0.209473,-0.016846,0.,0.,0.,2.934082,-0.013672,0.060059,0.480469,282,168,87,109
38.399,14:55:43.399,-8.25293,0.242188,0.303711,-0.075439,0.206299,0.088135,0.,0.,0.,2.926025,-0.008545,0.084229,0.472656,290,169,87,101
38.499,14:55:43.499,-4.456055,0.417969,-2.929688,-0.047852,-0.245605,-0.093506,0.,0.,0.,2.921875,-0.002441,0.089844,0.472656,295,165,87,98
38.599,14:55:43.599,-4.456055,0.417969,-2.929688,-0.047852,-0.245605,-0.093506,0.,0.,0.,2.921875,-0.002441,0.089844,0.472656,295,165,87,98
38.699,14:55:43.699,-28.703125,14.047852,-0.973633,1.383301,0.122314,-3.286133,0.,0.,0.,2.951416,-0.034424,0.025879,0.214844,262,164,92,85
38.799,14:55:43.799,1.90918,-0.298828,-4.526367,-0.166992,0.642578,-0.102051,0.,0.,0.,2.964355,-0.033447,-0.007324,0.214844,266,165,93,85
38.899,14:55:43.899,-16.745117,-2.847656,6.397461,0.32666,0.336182,1.610107,0.,0.,0.,2.987549,0.030762,0.067139,0.199219,266,166,94,86
38.999,14:55:43.999,-7.77832,2.077148,-0.873047,-0.057373,0.311768,0.242432,0.,0.,0.,2.981445,-0.021484,0.000977,0.234375,266,166,95,86
39.099,14:55:44.099,-9.124023,-1.848633,0.773438,0.052002,-0.301025,0.026367,0.,0.,0.,2.983154,0.010986,0.030518,0.238281,266,167,95,86
39.199,14:55:44.199,-10.90918,0.860352,0.536133,-0.012695,0.158447,0.103027,0.,0.,0.,2.980469,-0.007812,0.024902,0.238281,266,167,96,85
39.299,14:55:44.299,-10.90918,0.860352,0.536133,-0.012695,0.158447,0.103027,0.,0.,0.,2.980469,-0.007812,0.024902,0.238281,266,167,96,85
39.399,14:55:44.399,-9.277344,-0.665039,-0.555664,-0.038086,-0.00415,-0.193604,0.,0.,0.,2.979736,-0.002197,0.021729,0.238281,266,167,98,85
39.499,14:55:44.499,-9.277344,-0.665039,-0.555664,-0.038086,-0.00415,-0.193604,0.,0.,0.,2.979736,-0.002197,0.021729,0.238281,266,167,98,85
39.599,14:55:44.599,-11.283203,-0.413086,0.602539,-0.018066,-0.036133,-0.005127,0.,0.,0.,2.979004,-0.000244,0.023438,0.238281,266,167,99,85
39.699,14:55:44.699,-11.283203,-0.413086,0.602539,-0.018066,-0.036133,-0.005127,0.,0.,0.,2.979004,-0.000244,0.023438,0.238281,266,167,99,85
39.799,14:55:44.799,-11.283203,-0.413086,0.602539,-0.018066,-0.036133,-0.005127,0.,0.,0.,2.979004,-0.000244,0.023438,0.238281,266,167,99,85
39.899,14:55:44.899,-11.283203,-0.413086,0.602539,-0.018066,-0.036133,-0.005127,0.,0.,0.,2.979004,-0.000244,0.023438,0.238281,266,167,99,85
39.999,14:55:44.999,-9.879883,0.469727,0.617188,-0.023193,-0.027588,-0.048828,0.,0.,0.,2.976807,-0.002686,0.023682,0.238281,266,167,102,84
40.099,14:55:45.099,-9.879883,0.469727,0.617188,-0.023193,-0.027588,-0.048828,0.,0.,0.,2.976807,-0.002686,0.023682,0.238281,266,167,102,84
40.199,14:55:45.199,-10.526367,-1.036133,0.75,-0.001953,0.126465,-0.039307,0.,0.,0.,2.97583,-0.001953,0.023926,0.238281,266,168,103,83
40.299,14:55:45.299,-10.526367,-1.036133,0.75,-0.001953,0.126465,-0.039307,0.,0.,0.,2.97583,-0.001953,0.023926,0.238281,266,168,103,83
40.399,14:55:45.399,-8.96582,-0.598633,-0.783203,0.022217,0.054199,0.144531,0.,0.,0.,2.974854,-0.002197,0.023926,0.238281,266,168,104,84
40.499,14:55:45.499,-8.96582,-0.598633,-0.783203,0.022217,0.054199,0.144531,0.,0.,0.,2.974854,-0.002197,0.023926,0.238281,266,168,104,84
40.599,14:55:45.599,-9.698242,1.787109,-0.260742,-0.012695,0.003174,-0.074463,0.,0.,0.,2.973633,-0.002197,0.023682,0.238281,266,168,104,85
40.699,14:55:45.699,-9.698242,1.787109,-0.260742,-0.012695,0.003174,-0.074463,0.,0.,0.,2.973633,-0.002197,0.023682,0.238281,266,168,104,85
40.799,14:55:45.799,-9.416016,-0.641602,-0.260742,0.010498,0.083008,-0.041504,0.,0.,0.,2.972656,-0.002441,0.023926,0.238281,266,169,105,85
40.899,14:55:45.899,-9.416016,-0.641602,-0.260742,0.010498,0.083008,-0.041504,0.,0.,0.,2.972656,-0.002441,0.023926,0.238281,266,169,105,85
40.999,14:55:45.999,-9.305664,0.731445,-0.474609,-0.030762,0.049805,0.019043,0.,0.,0.,2.97168,-0.002197,0.02417,0.238281,266,169,107,85
41.099,14:55:46.099,-9.305664,0.731445,-0.474609,-0.030762,0.049805,0.019043,0.,0.,0.,2.97168,-0.002197,0.02417,0.238281,266,169,107,85
41.199,14:55:46.199,-9.094727,0.541016,-1.044922,0.,0.001953,-0.088135,0.,0.,0.,2.970703,-0.002441,0.02417,0.238281,266,170,107,85
41.299,14:55:46.299,-9.094727,0.541016,-1.044922,0.,0.001953,-0.088135,0.,0.,0.,2.970703,-0.002441,0.02417,0.238281,266,170,107,85
41.399,14:55:46.399,-9.760742,0.746094,-0.375,0.012695,-0.014893,-0.024414,0.,0.,0.,2.969727,-0.001953,0.024414,0.242188,266,170,108,85
41.499,14:55:46.499,-9.760742,0.746094,-0.375,0.012695,-0.014893,-0.024414,0.,0.,0.,2.969727,-0.001953,0.024414,0.242188,266,170,108,85
41.599,14:55:46.599,-9.612305,0.280273,-0.655273,-0.046631,0.012695,-0.148926,0.,0.,0.,2.968506,-0.002686,0.024414,0.238281,266,171,107,85
41.699,14:55:46.699,-9.612305,0.280273,-0.655273,-0.046631,0.012695,-0.148926,0.,0.,0.,2.968506,-0.002686,0.024414,0.238281,266,171,107,85
41.799,14:55:46.799,-9.37793,-1.145508,-0.664062,-0.003174,-0.005127,0.024414,0.,0.,0.,2.967773,-0.002441,0.024414,0.238281,266,171,106,85
41.899,14:55:46.899,-10.947266,0.827148,-0.132812,-0.024414,-0.016846,-0.045654,0.,0.,0.,2.967041,-0.002686,0.023926,0.238281,266,173,105,85
41.999,14:55:46.999,-9.401367,-0.717773,-0.459961,-0.02124,-0.055176,-0.107422,0.,0.,0.,2.966064,-0.003174,0.02417,0.238281,266,172,105,85
42.099,14:55:47.099,-11.004883,-0.831055,0.764648,-0.016846,-0.009521,-0.005127,0.,0.,0.,2.965088,-0.002197,0.02417,0.238281,266,172,105,85
42.199,14:55:47.199,-10.166992,-0.769531,-0.018555,-0.012695,0.084961,0.039307,0.,0.,0.,2.964111,-0.002197,0.024658,0.242188,266,172,105,85
