Time,UTC,FINKEN_SENSOR_MODEL:acceleration_z,FINKEN_SENSOR_MODEL:acceleration_y,FINKEN_SENSOR_MODEL:acceleration_x,FINKEN_SENSOR_MODEL:velocity_yaw,FINKEN_SENSOR_MODEL:velocity_roll,FINKEN_SENSOR_MODEL:velocity_pitch,FINKEN_SENSOR_MODEL:velocity_z,FINKEN_SENSOR_MODEL:velocity_y,FINKEN_SENSOR_MODEL:velocity_x,FINKEN_SENSOR_MODEL:pos_yaw,FINKEN_SENSOR_MODEL:pos_roll,FINKEN_SENSOR_MODEL:pos_pitch,FINKEN_SENSOR_MODEL:pos_z,FINKEN_SENSOR_MODEL:distance_d_back,FINKEN_SENSOR_MODEL:distance_d_left,FINKEN_SENSOR_MODEL:distance_d_rigth,FINKEN_SENSOR_MODEL:distance_d_front
2.812,14:37:17.812,-9.836914,0.123047,0.037109,-0.010498,0.011475,-0.027588,0.,0.,0.,2.804932,-0.011963,0.047852,0.238281,101,44,146,293
2.912,14:37:17.912,-9.875,0.137695,0.080078,-0.012695,0.010498,-0.025391,0.,0.,0.,2.804932,-0.011963,0.047607,0.238281,101,44,146,293
3.012,14:37:18.012,-9.818359,0.071289,0.075195,-0.011475,0.012695,-0.029785,0.,0.,0.,2.805176,-0.012207,0.047852,0.238281,101,44,146,293
3.112,14:37:18.112,-9.818359,0.071289,0.075195,-0.011475,0.012695,-0.029785,0.,0.,0.,2.805176,-0.012207,0.047852,0.238281,101,44,146,293
3.212,14:37:18.212,-9.894531,0.179688,0.066406,-0.008301,0.009521,-0.028564,0.,0.,0.,2.805176,-0.012207,0.047852,0.238281,102,43,146,293
3.312,14:37:18.312,-9.9375,0.12793,0.046875,-0.013672,0.010498,-0.026367,0.,0.,0.,2.805176,-0.012207,0.047852,0.238281,102,43,146,293
3.412,14:37:18.412,-9.832031,0.104492,0.123047,-0.010498,0.010498,-0.027588,0.,0.,0.,2.805176,-0.012207,0.047852,0.238281,102,44,146,293
3.512,14:37:18.512,-9.879883,0.151367,0.113281,-0.012695,0.010498,-0.028564,0.,0.,0.,2.805176,-0.012207,0.047852,0.238281,102,44,146,293
3.612,14:37:18.612,-9.851562,0.104492,0.033203,-0.011475,0.010498,-0.028564,0.,0.,0.,2.804932,-0.012207,0.047852,0.238281,102,44,146,293
3.712,14:37:18.712,-9.836914,0.113281,0.003906,-0.008301,0.009521,-0.027588,0.,0.,0.,2.804932,-0.011963,0.047852,0.238281,102,44,146,293
3.812,14:37:18.812,-9.875,0.175781,0.084961,-0.012695,0.009521,-0.028564,0.,0.,0.,2.804932,-0.011963,0.047852,0.238281,102,44,146,293
3.912,14:37:18.912,-9.899414,0.151367,0.023438,-0.008301,0.011475,-0.028564,0.,0.,0.,2.805176,-0.011963,0.047852,0.238281,102,44,146,293
4.012,14:37:19.012,-9.927734,0.051758,0.141602,-0.013672,0.009521,-0.026367,0.,0.,0.,2.805176,-0.011963,0.047852,0.238281,101,44,146,293
4.112,14:37:19.112,-9.927734,0.051758,0.141602,-0.013672,0.009521,-0.026367,0.,0.,0.,2.805176,-0.011963,0.047852,0.238281,101,44,146,293
4.212,14:37:19.212,-9.851562,0.222656,0.080078,-0.009521,0.011475,-0.029785,0.,0.,0.,2.805176,-0.011963,0.047852,0.238281,101,44,146,293
4.312,14:37:19.312,-9.818359,0.142578,0.104492,-0.012695,0.011475,-0.027588,0.,0.,0.,2.805176,-0.011963,0.047852,0.238281,102,44,146,293
4.412,14:37:19.412,-9.856445,0.104492,0.023438,-0.011475,0.010498,-0.025391,0.,0.,0.,2.805176,-0.011963,0.047852,0.238281,102,44,146,293
4.512,14:37:19.512,-9.894531,0.071289,0.070312,-0.011475,0.008301,-0.025391,0.,0.,0.,2.805176,-0.012207,0.047852,0.238281,102,44,146,293
4.612,14:37:19.612,-9.932617,0.104492,0.066406,-0.013672,0.009521,-0.027588,0.,0.,0.,2.805176,-0.012207,0.047852,0.238281,102,44,146,293
4.712,14:37:19.712,-9.884766,0.175781,0.094727,-0.013672,0.009521,-0.032959,0.,0.,0.,2.80542,-0.011963,0.047852,0.238281,102,44,146,293
4.812,14:37:19.812,-9.884766,0.175781,0.094727,-0.013672,0.009521,-0.032959,0.,0.,0.,2.80542,-0.011963,0.047852,0.238281,102,44,146,293
4.912,14:37:19.912,-9.870117,0.089844,0.146484,-0.011475,0.012695,-0.025391,0.,0.,0.,2.80542,-0.011963,0.047852,0.238281,102,44,146,293
5.012,14:37:20.012,-9.870117,0.089844,0.146484,-0.011475,0.012695,-0.025391,0.,0.,0.,2.80542,-0.011963,0.047852,0.238281,102,44,146,293
5.112,14:37:20.112,-9.870117,0.089844,0.146484,-0.011475,0.012695,-0.025391,0.,0.,0.,2.80542,-0.011963,0.047852,0.238281,102,44,146,293
5.212,14:37:20.212,-9.841797,0.104492,0.051758,-0.012695,0.010498,-0.030762,0.,0.,0.,2.80542,-0.012207,0.047852,0.238281,102,44,146,293
5.312,14:37:20.312,-9.889648,0.161133,0.02832,-0.011475,0.008301,-0.026367,0.,0.,0.,2.805176,-0.012207,0.047852,0.238281,102,44,146,293
5.412,14:37:20.412,-9.894531,0.104492,0.070312,-0.010498,0.010498,-0.025391,0.,0.,0.,2.80542,-0.012207,0.047607,0.238281,102,44,146,293
5.512,14:37:20.512,-9.894531,0.15625,0.003906,-0.012695,0.010498,-0.030762,0.,0.,0.,2.80542,-0.012207,0.047852,0.238281,102,44,146,293
5.612,14:37:20.612,-9.856445,0.051758,0.056641,-0.010498,0.008301,-0.027588,0.,0.,0.,2.805176,-0.012207,0.047607,0.238281,102,44,146,293
5.712,14:37:20.712,-9.856445,0.051758,0.056641,-0.010498,0.008301,-0.027588,0.,0.,0.,2.805176,-0.012207,0.047607,0.238281,102,44,146,293
5.812,14:37:20.812,-9.90918,0.113281,0.051758,-0.013672,0.009521,-0.029785,0.,0.,0.,2.805176,-0.012207,0.047607,0.238281,102,44,146,293
5.912,14:37:20.912,-9.90918,0.113281,0.051758,-0.013672,0.009521,-0.029785,0.,0.,0.,2.805176,-0.012207,0.047607,0.238281,102,44,146,293
6.012,14:37:21.012,-9.818359,0.089844,0.104492,-0.009521,0.009521,-0.030762,0.,0.,0.,2.805176,-0.012207,0.047607,0.238281,102,44,146,293
6.112,14:37:21.112,-9.818359,0.089844,0.104492,-0.009521,0.009521,-0.030762,0.,0.,0.,2.805176,-0.012207,0.047607,0.238281,102,44,146,293
6.212,14:37:21.212,-9.856445,0.142578,0.013672,-0.011475,0.012695,-0.029785,0.,0.,0.,2.805176,-0.012207,0.047607,0.238281,102,44,146,293
6.312,14:37:21.312,-9.904297,0.194336,-0.008789,-0.012695,0.007324,-0.028564,0.,0.,0.,2.805176,-0.012207,0.047607,0.238281,102,44,146,293
6.412,14:37:21.412,-9.90918,0.123047,0.080078,-0.011475,0.012695,-0.027588,0.,0.,0.,2.805176,-0.012207,0.047607,0.238281,102,44,146,293
6.512,14:37:21.512,-9.90918,0.099609,0.02832,-0.013672,0.008301,-0.026367,0.,0.,0.,2.805176,-0.012207,0.047607,0.238281,102,44,146,293
6.612,14:37:21.612,-9.841797,0.18457,0.02832,-0.012695,0.008301,-0.027588,0.,0.,0.,2.805176,-0.012207,0.047607,0.238281,102,44,146,293
6.712,14:37:21.712,-9.904297,0.170898,0.070312,-0.011475,0.006348,-0.026367,0.,0.,0.,2.805176,-0.012207,0.047607,0.238281,102,44,146,293
6.812,14:37:21.812,-9.889648,0.104492,0.070312,-0.012695,0.009521,-0.028564,0.,0.,0.,2.805176,-0.012207,0.047607,0.238281,102,44,147,293
6.912,14:37:21.912,-9.985352,0.071289,0.080078,-0.010498,0.009521,-0.029785,0.,0.,0.,2.805176,-0.012207,0.047607,0.238281,102,44,147,293
7.012,14:37:22.012,-9.917969,0.142578,0.041992,-0.011475,0.007324,-0.028564,0.,0.,0.,2.805176,-0.012207,0.047607,0.238281,102,44,147,293
7.112,14:37:22.112,-9.917969,0.142578,0.041992,-0.011475,0.007324,-0.028564,0.,0.,0.,2.805176,-0.012207,0.047607,0.238281,102,44,147,293
7.212,14:37:22.212,-9.914062,0.113281,0.080078,-0.008301,0.007324,-0.025391,0.,0.,0.,2.80542,-0.012207,0.047607,0.238281,102,44,147,293
7.312,14:37:22.312,-9.861328,0.099609,0.013672,-0.011475,0.008301,-0.027588,0.,0.,0.,2.80542,-0.012207,0.047607,0.238281,102,44,147,293
7.412,14:37:22.412,-9.899414,0.12793,0.051758,-0.014893,0.010498,-0.025391,0.,0.,0.,2.80542,-0.012207,0.047607,0.238281,102,44,147,293
7.512,14:37:22.512,-9.818359,0.075195,0.018555,-0.009521,0.010498,-0.029785,0.,0.,0.,2.805176,-0.012207,0.047607,0.238281,102,44,147,293
7.612,14:37:22.612,-9.879883,0.066406,0.018555,-0.011475,0.010498,-0.029785,0.,0.,0.,2.805176,-0.012207,0.047607,0.238281,102,44,147,293
7.712,14:37:22.712,-9.856445,0.113281,0.080078,-0.011475,0.012695,-0.027588,0.,0.,0.,2.80542,-0.012207,0.047607,0.238281,102,44,147,293
7.812,14:37:22.812,-9.942383,0.113281,0.041992,-0.011475,0.013672,-0.025391,0.,0.,0.,2.80542,-0.011963,0.047607,0.238281,102,44,147,293
7.912,14:37:22.912,-9.870117,0.18457,0.075195,-0.011475,0.011475,-0.027588,0.,0.,0.,2.805176,-0.012207,0.047607,0.238281,102,44,147,293
8.012,14:37:23.012,-9.947266,0.071289,0.033203,-0.011475,0.010498,-0.027588,0.,0.,0.,2.805176,-0.012207,0.047607,0.238281,102,44,147,293
8.112,14:37:23.112,-9.899414,0.061523,0.061523,-0.010498,0.007324,-0.025391,0.,0.,0.,2.805176,-0.012207,0.047607,0.238281,102,44,147,293
8.212,14:37:23.212,-9.932617,0.071289,0.070312,-0.012695,0.010498,-0.028564,0.,0.,0.,2.805176,-0.012207,0.047607,0.238281,102,44,147,293
8.312,14:37:23.312,-9.904297,0.066406,0.075195,-0.011475,0.010498,-0.029785,0.,0.,0.,2.805176,-0.012207,0.047607,0.238281,102,44,147,293
8.412,14:37:23.412,-9.957031,0.080078,0.041992,-0.009521,0.011475,-0.026367,0.,0.,0.,2.805176,-0.012207,0.047607,0.238281,102,44,146,293
8.512,14:37:23.512,-9.889648,0.161133,0.104492,-0.012695,0.008301,-0.027588,0.,0.,0.,2.805176,-0.012207,0.047607,0.238281,102,44,146,293
8.612,14:37:23.612,-9.927734,0.123047,0.037109,-0.010498,0.010498,-0.027588,0.,0.,0.,2.80542,-0.012207,0.047607,0.238281,102,44,146,293
8.712,14:37:23.712,-9.980469,0.166016,0.041992,-0.011475,0.008301,-0.030762,0.,0.,0.,2.805176,-0.012207,0.047607,0.238281,102,44,146,293
8.812,14:37:23.812,-9.9375,0.137695,-0.003906,-0.012695,0.009521,-0.027588,0.,0.,0.,2.805176,-0.012207,0.047607,0.238281,102,44,146,293
8.912,14:37:23.912,-9.851562,0.104492,0.056641,-0.014893,0.010498,-0.027588,0.,0.,0.,2.805176,-0.012207,0.047607,0.238281,102,44,146,293
9.012,14:37:24.012,-9.866211,0.071289,0.051758,-0.011475,0.009521,-0.027588,0.,0.,0.,2.805176,-0.012207,0.047607,0.238281,102,44,147,293
9.112,14:37:24.112,-9.975586,0.084961,0.151367,-0.010498,0.009521,-0.028564,0.,0.,0.,2.805176,-0.012207,0.047607,0.238281,102,44,147,293
9.212,14:37:24.212,-9.836914,0.161133,0.,-0.009521,0.010498,-0.029785,0.,0.,0.,2.805176,-0.012207,0.047607,0.238281,102,44,147,293
9.312,14:37:24.312,-9.952148,0.118164,0.046875,-0.010498,0.011475,-0.031738,0.,0.,0.,2.805176,-0.012207,0.047607,0.238281,102,44,147,293
9.412,14:37:24.412,-10.,0.089844,0.056641,-0.012695,0.011475,-0.027588,0.,0.,0.,2.805176,-0.012451,0.047363,0.238281,102,44,147,293
9.512,14:37:24.512,-9.879883,0.118164,0.099609,-0.010498,0.010498,-0.028564,0.,0.,0.,2.804932,-0.012451,0.047363,0.238281,102,44,147,293
9.612,14:37:24.612,-9.827148,0.166016,0.084961,-0.012695,0.006348,-0.025391,0.,0.,0.,2.804932,-0.012451,0.047363,0.238281,102,44,147,293
9.712,14:37:24.712,-10.014648,0.113281,0.099609,-0.011475,0.008301,-0.028564,0.,0.,0.,2.804932,-0.012451,0.047363,0.238281,102,44,147,293
9.812,14:37:24.812,-9.789062,0.137695,0.094727,-0.012695,0.014893,-0.027588,0.,0.,0.,2.804932,-0.012451,0.047363,0.238281,102,44,146,293
9.912,14:37:24.912,-9.884766,0.137695,0.018555,-0.010498,0.011475,-0.027588,0.,0.,0.,2.804932,-0.012451,0.047363,0.238281,102,44,146,293
10.012,14:37:25.012,-10.076172,0.089844,0.018555,-0.011475,0.011475,-0.027588,0.,0.,0.,2.804932,-0.012207,0.047363,0.238281,102,44,146,293
10.112,14:37:25.112,-10.076172,0.089844,0.018555,-0.011475,0.011475,-0.027588,0.,0.,0.,2.804932,-0.012207,0.047363,0.238281,102,44,146,293
10.212,14:37:25.212,-9.975586,0.084961,0.018555,-0.011475,0.007324,-0.027588,0.,0.,0.,2.804932,-0.012207,0.047363,0.238281,102,44,146,293
10.312,14:37:25.312,-9.841797,0.113281,0.066406,-0.014893,0.008301,-0.027588,0.,0.,0.,2.804932,-0.012207,0.047363,0.238281,102,44,146,293
10.412,14:37:25.412,-9.884766,0.046875,0.037109,-0.009521,0.008301,-0.026367,0.,0.,0.,2.804932,-0.012207,0.047363,0.238281,102,44,147,293
10.512,14:37:25.512,-9.875,0.084961,0.066406,-0.013672,0.011475,-0.027588,0.,0.,0.,2.804932,-0.012207,0.047363,0.238281,102,44,147,293
10.612,14:37:25.612,-9.875,0.084961,0.066406,-0.013672,0.011475,-0.027588,0.,0.,0.,2.804932,-0.012207,0.047363,0.238281,102,44,147,293
10.712,14:37:25.712,-9.942383,0.146484,0.070312,-0.013672,0.011475,-0.028564,0.,0.,0.,2.804932,-0.012207,0.047363,0.238281,102,44,147,293
10.812,14:37:25.812,-9.942383,0.146484,0.070312,-0.013672,0.011475,-0.028564,0.,0.,0.,2.804932,-0.012207,0.047363,0.238281,102,44,147,293
10.912,14:37:25.912,-9.866211,0.089844,0.113281,-0.010498,0.009521,-0.029785,0.,0.,0.,2.804932,-0.012451,0.047363,0.238281,102,44,147,293
11.012,14:37:26.012,-9.866211,0.089844,0.113281,-0.010498,0.009521,-0.029785,0.,0.,0.,2.804932,-0.012451,0.047363,0.238281,102,44,147,293
11.112,14:37:26.112,-9.932617,0.094727,0.051758,-0.011475,0.008301,-0.025391,0.,0.,0.,2.804932,-0.012451,0.047363,0.238281,102,44,147,293
11.212,14:37:26.212,-9.922852,0.151367,0.051758,-0.008301,0.012695,-0.028564,0.,0.,0.,2.804932,-0.012451,0.047363,0.238281,102,44,147,293
11.312,14:37:26.312,-9.917969,0.099609,0.075195,-0.010498,0.011475,-0.030762,0.,0.,0.,2.804932,-0.012451,0.047363,0.238281,102,43,147,293
11.412,14:37:26.412,-9.961914,0.084961,0.013672,-0.010498,0.006348,-0.029785,0.,0.,0.,2.804932,-0.012451,0.047363,0.238281,102,43,146,293
11.512,14:37:26.512,-9.961914,0.084961,0.013672,-0.010498,0.006348,-0.029785,0.,0.,0.,2.804932,-0.012451,0.047363,0.238281,102,43,146,293
11.612,14:37:26.612,-9.861328,0.151367,0.056641,-0.011475,0.009521,-0.026367,0.,0.,0.,2.804932,-0.012451,0.047363,0.238281,102,43,146,293
11.712,14:37:26.712,-9.861328,0.151367,0.056641,-0.011475,0.009521,-0.026367,0.,0.,0.,2.804932,-0.012451,0.047363,0.238281,102,43,146,293
11.812,14:37:26.812,-9.942383,0.108398,0.056641,-0.012695,0.011475,-0.026367,0.,0.,0.,2.804932,-0.012451,0.047363,0.238281,102,44,146,293
11.912,14:37:26.912,-9.942383,0.108398,0.056641,-0.012695,0.011475,-0.026367,0.,0.,0.,2.804932,-0.012451,0.047363,0.238281,102,44,146,293
12.012,14:37:27.012,-9.917969,0.094727,0.089844,-0.010498,0.010498,-0.026367,0.,0.,0.,2.804932,-0.012451,0.047363,0.238281,102,44,146,293
12.112,14:37:27.112,-9.889648,0.15625,-0.018555,-0.012695,0.007324,-0.029785,0.,0.,0.,2.804932,-0.012451,0.047363,0.238281,102,44,146,293
12.212,14:37:27.212,-9.879883,0.084961,0.066406,-0.011475,0.008301,-0.029785,0.,0.,0.,2.804932,-0.012451,0.047119,0.238281,102,44,146,293
12.312,14:37:27.312,-9.856445,0.094727,0.061523,-0.012695,0.011475,-0.026367,0.,0.,0.,2.804932,-0.012451,0.047119,0.238281,102,44,146,293
12.412,14:37:27.412,-9.856445,0.094727,0.061523,-0.012695,0.011475,-0.026367,0.,0.,0.,2.804932,-0.012451,0.047119,0.238281,102,44,146,293
12.512,14:37:27.512,-9.942383,0.161133,0.104492,-0.010498,0.012695,-0.028564,0.,0.,0.,2.804688,-0.012451,0.047119,0.238281,102,44,146,293
12.612,14:37:27.612,-9.942383,0.161133,0.104492,-0.010498,0.012695,-0.028564,0.,0.,0.,2.804688,-0.012451,0.047119,0.238281,102,44,146,293
12.712,14:37:27.712,-9.866211,0.132812,0.066406,-0.011475,0.009521,-0.026367,0.,0.,0.,2.804932,-0.012451,0.047363,0.238281,102,44,146,293
12.812,14:37:27.812,-9.866211,0.132812,0.066406,-0.011475,0.009521,-0.026367,0.,0.,0.,2.804932,-0.012451,0.047363,0.238281,102,44,146,293
12.912,14:37:27.912,-9.894531,0.108398,-0.013672,-0.012695,0.011475,-0.027588,0.,0.,0.,2.804688,-0.012451,0.047119,0.238281,102,44,146,293
13.012,14:37:28.012,-9.870117,0.099609,0.089844,-0.012695,0.011475,-0.029785,0.,0.,0.,2.804688,-0.012451,0.047119,0.238281,102,44,146,293
13.112,14:37:28.112,-9.822266,0.094727,0.070312,-0.011475,0.011475,-0.025391,0.,0.,0.,2.804688,-0.012451,0.047119,0.238281,102,43,147,293
13.212,14:37:28.212,-9.822266,0.094727,0.070312,-0.011475,0.011475,-0.025391,0.,0.,0.,2.804688,-0.012451,0.047119,0.238281,102,43,147,293
13.312,14:37:28.312,-9.889648,0.118164,0.075195,-0.011475,0.006348,-0.027588,0.,0.,0.,2.804688,-0.012451,0.047119,0.238281,102,43,147,293
13.412,14:37:28.412,-9.889648,0.118164,0.075195,-0.011475,0.006348,-0.027588,0.,0.,0.,2.804688,-0.012451,0.047119,0.238281,102,43,147,293
13.512,14:37:28.512,-9.84668,0.18457,0.02832,-0.010498,0.007324,-0.027588,0.,0.,0.,2.804688,-0.012695,0.047119,0.238281,102,44,146,293
13.612,14:37:28.612,-9.84668,0.18457,0.02832,-0.010498,0.007324,-0.027588,0.,0.,0.,2.804688,-0.012695,0.047119,0.238281,102,44,146,293
13.712,14:37:28.712,-9.947266,0.15625,0.084961,-0.012695,0.014893,-0.027588,0.,0.,0.,2.804688,-0.012695,0.047119,0.238281,102,44,146,293
13.812,14:37:28.812,-9.947266,0.15625,0.084961,-0.012695,0.014893,-0.027588,0.,0.,0.,2.804688,-0.012695,0.047119,0.238281,102,44,146,293
13.912,14:37:28.912,-9.841797,0.12793,0.12793,-0.010498,0.008301,-0.028564,0.,0.,0.,2.804688,-0.012695,0.047119,0.238281,102,44,146,293
14.012,14:37:29.012,-9.841797,0.12793,0.12793,-0.010498,0.008301,-0.028564,0.,0.,0.,2.804688,-0.012695,0.047119,0.238281,102,44,146,293
14.112,14:37:29.112,-9.841797,0.146484,0.02832,-0.011475,0.008301,-0.028564,0.,0.,0.,2.804688,-0.012695,0.047119,0.238281,102,44,146,293
14.212,14:37:29.212,-9.841797,0.146484,0.02832,-0.011475,0.008301,-0.028564,0.,0.,0.,2.804688,-0.012695,0.047119,0.238281,102,44,146,293
14.312,14:37:29.312,-9.822266,0.084961,0.151367,-0.012695,0.007324,-0.027588,0.,0.,0.,2.804688,-0.012695,0.047119,0.238281,102,44,146,293
14.412,14:37:29.412,-9.822266,0.084961,0.151367,-0.012695,0.007324,-0.027588,0.,0.,0.,2.804688,-0.012695,0.047119,0.238281,102,44,146,293
14.512,14:37:29.512,-9.894531,0.123047,0.041992,-0.012695,0.010498,-0.028564,0.,0.,0.,2.804688,-0.012695,0.047119,0.238281,102,44,146,293
14.612,14:37:29.612,-9.894531,0.123047,0.041992,-0.012695,0.010498,-0.028564,0.,0.,0.,2.804688,-0.012695,0.047119,0.238281,102,44,146,293
14.712,14:37:29.712,-9.894531,0.123047,0.041992,-0.012695,0.010498,-0.028564,0.,0.,0.,2.804688,-0.012695,0.047119,0.238281,102,44,146,293
14.812,14:37:29.812,-9.822266,0.166016,0.104492,-0.011475,0.011475,-0.027588,0.,0.,0.,2.804688,-0.012695,0.047119,0.238281,102,43,146,293
14.912,14:37:29.912,-9.822266,0.166016,0.104492,-0.011475,0.011475,-0.027588,0.,0.,0.,2.804688,-0.012695,0.047119,0.238281,102,43,146,293
15.012,14:37:30.012,-9.899414,0.161133,-0.008789,-0.011475,0.008301,-0.025391,0.,0.,0.,2.804688,-0.012695,0.047119,0.238281,102,43,146,293
15.112,14:37:30.112,-9.884766,0.132812,0.075195,-0.012695,0.012695,-0.027588,0.,0.,0.,2.804688,-0.012695,0.047119,0.238281,102,44,146,293
15.212,14:37:30.212,-9.755859,0.089844,0.075195,-0.010498,0.007324,-0.028564,0.,0.,0.,2.804688,-0.012695,0.047119,0.238281,102,44,146,293
15.312,14:37:30.312,-9.755859,0.089844,0.075195,-0.010498,0.007324,-0.028564,0.,0.,0.,2.804688,-0.012695,0.047119,0.238281,102,44,146,293
15.412,14:37:30.412,-10.023438,0.132812,0.089844,-0.012695,0.012695,-0.026367,0.,0.,0.,2.804688,-0.012695,0.047119,0.238281,102,44,146,293
15.512,14:37:30.512,-10.023438,0.132812,0.089844,-0.012695,0.012695,-0.026367,0.,0.,0.,2.804688,-0.012695,0.047119,0.238281,102,44,146,293
15.612,14:37:30.612,-9.84668,0.118164,0.023438,-0.010498,0.010498,-0.027588,0.,0.,0.,2.804688,-0.012695,0.047119,0.238281,102,44,146,293
15.712,14:37:30.712,-9.84668,0.108398,0.013672,-0.009521,0.007324,-0.027588,0.,0.,0.,2.804688,-0.012695,0.047119,0.238281,102,44,146,293
15.812,14:37:30.812,-9.875,0.132812,0.066406,-0.012695,0.010498,-0.029785,0.,0.,0.,2.804932,-0.012695,0.047119,0.238281,102,44,147,293
15.912,14:37:30.912,-9.875,0.132812,0.066406,-0.012695,0.010498,-0.029785,0.,0.,0.,2.804932,-0.012695,0.047119,0.238281,102,44,147,293
16.012,14:37:31.012,-9.875,0.132812,0.066406,-0.012695,0.010498,-0.029785,0.,0.,0.,2.804932,-0.012695,0.047119,0.238281,102,44,147,293
16.112,14:37:31.112,-9.894531,0.108398,0.046875,-0.012695,0.010498,-0.029785,0.,0.,0.,2.804932,-0.012695,0.047363,0.238281,102,44,147,293
16.212,14:37:31.212,-9.889648,0.108398,0.061523,-0.010498,0.012695,-0.025391,0.,0.,0.,2.804932,-0.012695,0.047363,0.238281,102,44,147,293
16.312,14:37:31.312,-9.932617,0.12793,0.084961,-0.010498,0.009521,-0.028564,0.,0.,0.,2.804932,-0.012695,0.047363,0.238281,102,44,147,293
16.412,14:37:31.412,-9.932617,0.12793,0.084961,-0.010498,0.009521,-0.028564,0.,0.,0.,2.804932,-0.012695,0.047363,0.238281,102,44,147,293
16.512,14:37:31.512,-9.836914,0.084961,-0.018555,-0.010498,0.009521,-0.028564,0.,0.,0.,2.804932,-0.012939,0.047363,0.238281,102,44,147,293
16.612,14:37:31.612,-9.836914,0.084961,-0.018555,-0.010498,0.009521,-0.028564,0.,0.,0.,2.804932,-0.012939,0.047363,0.238281,102,44,147,293
16.712,14:37:31.712,-9.947266,0.061523,0.104492,-0.009521,0.006348,-0.028564,0.,0.,0.,2.804932,-0.012695,0.047119,0.238281,102,43,147,293
16.812,14:37:31.812,-9.9375,0.12793,0.066406,-0.012695,0.009521,-0.027588,0.,0.,0.,2.804932,-0.012695,0.047119,0.238281,102,44,147,293
16.912,14:37:31.912,-9.9375,0.12793,0.066406,-0.012695,0.009521,-0.027588,0.,0.,0.,2.804932,-0.012695,0.047119,0.238281,102,44,147,293
17.012,14:37:32.012,-9.813477,0.104492,0.080078,-0.012695,0.011475,-0.027588,0.,0.,0.,2.804932,-0.012695,0.047363,0.238281,102,43,147,293
17.112,14:37:32.112,-9.813477,0.104492,0.080078,-0.012695,0.011475,-0.027588,0.,0.,0.,2.804932,-0.012695,0.047363,0.238281,102,43,147,293
17.212,14:37:32.212,-9.985352,0.118164,0.018555,-0.009521,0.011475,-0.028564,0.,0.,0.,2.804932,-0.012939,0.047363,0.238281,102,43,147,293
17.312,14:37:32.312,-9.985352,0.118164,0.018555,-0.009521,0.011475,-0.028564,0.,0.,0.,2.804932,-0.012939,0.047363,0.238281,102,43,147,293
17.412,14:37:32.412,-9.803711,0.041992,0.075195,-0.011475,0.010498,-0.027588,0.,0.,0.,2.804932,-0.012939,0.047363,0.238281,102,43,147,293
17.512,14:37:32.512,-9.822266,0.041992,0.084961,-0.013672,0.009521,-0.027588,0.,0.,0.,2.804932,-0.012939,0.047363,0.238281,102,44,147,293
17.612,14:37:32.612,-9.856445,0.175781,0.023438,-0.013672,0.008301,-0.025391,0.,0.,0.,2.804932,-0.012939,0.047363,0.238281,102,44,146,293
17.712,14:37:32.712,-9.866211,0.118164,0.084961,-0.014893,0.013672,-0.029785,0.,0.,0.,2.805176,-0.012939,0.047363,0.238281,102,43,146,293
17.812,14:37:32.812,-9.894531,0.204102,0.12793,-0.008301,0.007324,-0.025391,0.,0.,0.,2.804932,-0.012939,0.047363,0.238281,102,43,146,293
17.912,14:37:32.912,-9.870117,0.175781,0.056641,-0.011475,0.008301,-0.029785,0.,0.,0.,2.804932,-0.012695,0.047363,0.238281,102,43,146,293
18.012,14:37:33.012,-9.870117,0.175781,0.056641,-0.011475,0.008301,-0.029785,0.,0.,0.,2.804932,-0.012695,0.047363,0.238281,102,43,146,293
18.112,14:37:33.112,-9.942383,0.170898,0.066406,-0.009521,0.011475,-0.025391,0.,0.,0.,2.805176,-0.012939,0.047363,0.238281,102,43,146,293
18.212,14:37:33.212,-9.942383,0.170898,0.066406,-0.009521,0.011475,-0.025391,0.,0.,0.,2.805176,-0.012939,0.047363,0.238281,102,43,146,293
18.312,14:37:33.312,-9.851562,0.108398,0.041992,-0.011475,0.009521,-0.030762,0.,0.,0.,2.805176,-0.012939,0.047363,0.238281,102,43,146,293
18.412,14:37:33.412,-9.851562,0.108398,0.041992,-0.011475,0.009521,-0.030762,0.,0.,0.,2.805176,-0.012939,0.047363,0.238281,102,43,146,293
18.512,14:37:33.512,-9.90918,0.170898,0.141602,-0.011475,0.009521,-0.027588,0.,0.,0.,2.805176,-0.012939,0.047363,0.238281,102,43,146,293
18.612,14:37:33.612,-9.90918,0.170898,0.141602,-0.011475,0.009521,-0.027588,0.,0.,0.,2.805176,-0.012939,0.047363,0.238281,102,43,146,293
18.712,14:37:33.712,-9.96582,0.132812,0.080078,-0.011475,0.009521,-0.026367,0.,0.,0.,2.805176,-0.012939,0.047363,0.238281,102,44,146,293
18.812,14:37:33.812,-9.96582,0.132812,0.080078,-0.011475,0.009521,-0.026367,0.,0.,0.,2.805176,-0.012939,0.047363,0.238281,102,44,146,293
18.912,14:37:33.912,-9.980469,0.199219,0.051758,-0.011475,0.011475,-0.031738,0.,0.,0.,2.805176,-0.012939,0.047363,0.238281,102,44,146,293
19.012,14:37:34.012,-9.889648,0.146484,0.113281,-0.010498,0.009521,-0.027588,0.,0.,0.,2.805176,-0.012939,0.047363,0.238281,102,44,146,293
19.112,14:37:34.112,-9.96582,0.142578,0.02832,-0.010498,0.007324,-0.028564,0.,0.,0.,2.805176,-0.012939,0.047363,0.238281,102,44,147,293
19.212,14:37:34.212,-9.904297,0.108398,0.046875,-0.011475,0.009521,-0.027588,0.,0.,0.,2.805176,-0.012939,0.047363,0.238281,102,44,147,293
19.312,14:37:34.312,-9.932617,0.099609,0.089844,-0.012695,0.012695,-0.027588,0.,0.,0.,2.805176,-0.012939,0.047363,0.238281,102,44,147,293
19.412,14:37:34.412,-9.932617,0.075195,0.080078,-0.010498,0.006348,-0.028564,0.,0.,0.,2.805176,-0.012939,0.047363,0.238281,102,44,147,293
19.512,14:37:34.512,-9.922852,0.137695,0.051758,-0.009521,0.013672,-0.028564,0.,0.,0.,2.80542,-0.012939,0.047363,0.238281,102,44,147,293
19.612,14:37:34.612,-9.927734,0.051758,0.033203,-0.011475,0.009521,-0.028564,0.,0.,0.,2.80542,-0.012939,0.047363,0.238281,102,44,147,293
19.712,14:37:34.712,-9.927734,0.051758,0.033203,-0.011475,0.009521,-0.028564,0.,0.,0.,2.80542,-0.012939,0.047363,0.238281,102,44,147,293
19.812,14:37:34.812,-9.856445,0.084961,0.037109,-0.010498,0.008301,-0.026367,0.,0.,0.,2.805176,-0.012939,0.047363,0.238281,102,44,147,293
19.912,14:37:34.912,-9.856445,0.084961,0.037109,-0.010498,0.008301,-0.026367,0.,0.,0.,2.805176,-0.012939,0.047363,0.238281,102,44,147,293
20.012,14:37:35.012,-9.870117,0.12793,0.104492,-0.014893,0.013672,-0.025391,0.,0.,0.,2.805176,-0.012939,0.047363,0.238281,102,44,147,293
20.112,14:37:35.112,-9.870117,0.12793,0.104492,-0.014893,0.013672,-0.025391,0.,0.,0.,2.805176,-0.012939,0.047363,0.238281,102,44,147,293
20.212,14:37:35.212,-9.875,0.151367,0.037109,-0.012695,0.011475,-0.025391,0.,0.,0.,2.80542,-0.012939,0.047363,0.238281,102,44,147,293
20.312,14:37:35.312,-9.904297,0.094727,0.070312,-0.011475,0.010498,-0.026367,0.,0.,0.,2.80542,-0.012939,0.047363,0.238281,102,44,147,293
20.412,14:37:35.412,-9.917969,0.023438,0.094727,-0.011475,0.008301,-0.027588,0.,0.,0.,2.80542,-0.012939,0.047363,0.238281,102,44,147,293
20.512,14:37:35.512,-9.957031,0.142578,0.046875,-0.014893,0.012695,-0.027588,0.,0.,0.,2.805176,-0.012939,0.047363,0.238281,102,44,147,293
20.612,14:37:35.612,-10.201172,-0.204102,0.170898,-0.11792,0.055176,0.010498,0.,0.,0.,2.806396,-0.013672,0.047119,0.238281,102,44,147,293
20.712,14:37:35.712,-9.818359,-0.142578,-0.459961,-0.028564,0.02002,0.014893,0.,0.,0.,2.806885,-0.013428,0.047852,0.238281,102,44,146,293
20.812,14:37:35.812,-9.818359,-0.142578,-0.459961,-0.028564,0.02002,0.014893,0.,0.,0.,2.806885,-0.013428,0.047852,0.238281,102,44,146,293
20.912,14:37:35.912,-10.158203,-0.394531,-0.080078,0.016846,-0.067871,-0.075439,0.,0.,0.,2.807373,-0.013672,0.047607,0.234375,102,44,146,293
21.012,14:37:36.012,-10.454102,0.02832,0.013672,-0.056396,-0.009521,-0.109375,0.,0.,0.,2.807617,-0.013184,0.047607,0.234375,102,44,146,293
21.112,14:37:36.112,-10.454102,0.02832,0.013672,-0.056396,-0.009521,-0.109375,0.,0.,0.,2.807617,-0.013184,0.047607,0.234375,102,44,146,293
21.212,14:37:36.212,-9.214844,-1.03125,-0.104492,0.000977,-0.015869,0.016846,0.,0.,0.,2.807617,-0.013184,0.047607,0.234375,102,44,146,293
21.312,14:37:36.312,-11.316406,0.575195,0.255859,-0.016846,-0.014893,-0.034912,0.,0.,0.,2.808105,-0.012939,0.047852,0.234375,102,44,146,293
21.412,14:37:36.412,-10.961914,-0.089844,1.624023,-0.005127,0.129639,0.074463,0.,0.,0.,2.80835,-0.012695,0.047852,0.234375,102,44,146,293
21.512,14:37:36.512,-9.444336,0.489258,-0.944336,-0.005127,0.030762,0.019043,0.,0.,0.,2.808594,-0.012939,0.048096,0.234375,103,44,146,293
21.612,14:37:36.612,-9.396484,0.936523,0.77832,-0.003174,-0.028564,-0.006348,0.,0.,0.,2.808838,-0.012939,0.047607,0.234375,103,44,146,293
21.712,14:37:36.712,-10.62207,-0.270508,0.421875,-0.016846,0.147705,-0.043457,0.,0.,0.,2.809082,-0.013184,0.04834,0.234375,103,44,146,293
21.812,14:37:36.812,-8.286133,0.817383,-0.726562,-0.019043,0.000977,0.027588,0.,0.,0.,2.809326,-0.012939,0.04834,0.234375,103,44,146,293
21.912,14:37:36.912,-10.306641,0.907227,-0.099609,0.,0.010498,-0.162598,0.,0.,0.,2.80957,-0.013184,0.048096,0.234375,103,44,146,293
22.012,14:37:37.012,-9.708008,-0.46582,-0.564453,-0.008301,-0.04248,-0.049805,0.,0.,0.,2.80957,-0.013184,0.04834,0.234375,104,44,146,293
22.112,14:37:37.112,-9.708008,-0.46582,-0.564453,-0.008301,-0.04248,-0.049805,0.,0.,0.,2.80957,-0.013184,0.04834,0.234375,104,44,146,293
22.212,14:37:37.212,-9.789062,0.204102,0.204102,-0.051025,0.008301,-0.086182,0.,0.,0.,2.809814,-0.012939,0.04834,0.234375,104,44,146,293
22.312,14:37:37.312,-10.229492,0.527344,0.084961,-0.046631,-0.11377,-0.089355,0.,0.,0.,2.810303,-0.012939,0.047852,0.234375,103,44,146,293
22.412,14:37:37.412,-10.454102,-1.568359,1.020508,-0.003174,0.047852,0.054199,0.,0.,0.,2.810303,-0.012939,0.048096,0.234375,103,44,146,293
22.512,14:37:37.512,-10.454102,-1.568359,1.020508,-0.003174,0.047852,0.054199,0.,0.,0.,2.810303,-0.012939,0.048096,0.234375,103,44,146,293
22.612,14:37:37.612,-10.790039,-0.227539,1.244141,-0.00415,0.116943,0.055176,0.,0.,0.,2.811035,-0.012695,0.048096,0.234375,104,44,146,293
22.712,14:37:37.712,-10.790039,-0.227539,1.244141,-0.00415,0.116943,0.055176,0.,0.,0.,2.811035,-0.012695,0.048096,0.234375,104,44,146,293
22.812,14:37:37.812,-8.985352,0.774414,-0.436523,-0.02002,0.083984,-0.031738,0.,0.,0.,2.811279,-0.012695,0.048828,0.234375,104,44,146,293
22.912,14:37:37.912,-9.286133,1.05957,0.270508,0.029785,0.000977,-0.026367,0.,0.,0.,2.811523,-0.012695,0.04834,0.238281,103,44,146,293
23.012,14:37:38.012,-10.545898,0.626953,0.094727,-0.037109,0.061523,-0.128662,0.,0.,0.,2.811523,-0.012695,0.048828,0.238281,103,43,146,293
23.112,14:37:38.112,-10.650391,1.150391,-0.426758,-0.00415,0.019043,-0.09668,0.,0.,0.,2.812012,-0.012451,0.048828,0.234375,103,43,146,293
23.212,14:37:38.212,-9.219727,-0.94043,-0.40332,-0.023193,-0.15625,-0.064697,0.,0.,0.,2.812256,-0.012695,0.048584,0.234375,103,44,146,293
23.312,14:37:38.312,-9.219727,-0.94043,-0.40332,-0.023193,-0.15625,-0.064697,0.,0.,0.,2.812256,-0.012695,0.048584,0.234375,103,44,146,293
23.412,14:37:38.412,-10.128906,0.708008,1.262695,-0.015869,0.120117,-0.060547,0.,0.,0.,2.812256,-0.012451,0.047852,0.234375,104,44,146,217
23.512,14:37:38.512,-10.798828,0.398438,-0.146484,-0.016846,0.033936,-0.039307,0.,0.,0.,2.8125,-0.012207,0.047852,0.234375,103,44,146,104
23.612,14:37:38.612,-9.717773,0.631836,0.902344,-0.008301,-0.030762,0.000977,0.,0.,0.,2.812744,-0.012207,0.047607,0.234375,103,44,146,103
23.712,14:37:38.712,-10.209961,0.227539,0.056641,-0.009521,0.075439,0.00415,0.,0.,0.,2.812744,-0.012207,0.048096,0.234375,103,44,146,103
23.812,14:37:38.812,-9.861328,-0.104492,-1.167969,-0.012695,-0.149902,0.013672,0.,0.,0.,2.812988,-0.012451,0.047852,0.234375,104,44,147,102
23.912,14:37:38.912,-8.827148,-0.389648,1.37207,0.000977,0.029785,0.036133,0.,0.,0.,2.813232,-0.012695,0.047607,0.234375,103,44,147,102
24.012,14:37:39.012,-10.066406,-0.251953,-1.34375,0.000977,0.051025,0.007324,0.,0.,0.,2.813477,-0.013184,0.048584,0.234375,103,44,147,178
24.112,14:37:39.112,-10.066406,-0.251953,-1.34375,0.000977,0.051025,0.007324,0.,0.,0.,2.813477,-0.013184,0.048584,0.234375,103,44,147,178
24.212,14:37:39.212,-9.429688,0.18457,-0.574219,-0.007324,-0.072266,-0.037109,0.,0.,0.,2.813477,-0.013184,0.047852,0.234375,103,44,147,293
24.312,14:37:39.312,-10.320312,-0.003906,-0.664062,-0.025391,-0.037109,-0.104248,0.,0.,0.,2.814209,-0.012695,0.048096,0.234375,103,44,147,103
24.412,14:37:39.412,-9.535156,0.746094,2.269531,-0.009521,0.072266,-0.064697,0.,0.,0.,2.814453,-0.012451,0.047852,0.234375,103,44,147,217
24.512,14:37:39.512,-11.186523,0.731445,-0.522461,-0.011475,0.076416,-0.07959,0.,0.,0.,2.814697,-0.012207,0.048584,0.234375,103,44,147,293
24.612,14:37:39.612,-9.952148,0.646484,0.313477,-0.031738,-0.11792,-0.055176,0.,0.,0.,2.814941,-0.011963,0.048096,0.234375,104,44,146,293
24.712,14:37:39.712,-9.798828,0.099609,0.745117,-0.010498,0.052979,-0.027588,0.,0.,0.,2.815186,-0.012207,0.04834,0.234375,103,44,146,293
24.812,14:37:39.812,-9.793945,-0.646484,-1.025391,-0.007324,-0.074463,-0.000977,0.,0.,0.,2.815186,-0.012207,0.048584,0.238281,103,44,146,293
24.912,14:37:39.912,-8.530273,0.056641,0.488281,-0.005127,0.010498,-0.02002,0.,0.,0.,2.815186,-0.012207,0.048584,0.238281,103,44,146,293
25.012,14:37:40.012,-9.995117,-0.394531,-1.552734,0.005127,0.055176,-0.036133,0.,0.,0.,2.815674,-0.011963,0.049072,0.238281,104,44,147,293
25.112,14:37:40.112,-9.995117,-0.394531,-1.552734,0.005127,0.055176,-0.036133,0.,0.,0.,2.815674,-0.011963,0.049072,0.238281,104,44,147,293
25.212,14:37:40.212,-9.975586,-0.242188,-0.597656,-0.033936,-0.086182,-0.07959,0.,0.,0.,2.815918,-0.011719,0.04834,0.238281,105,44,147,293
25.312,14:37:40.312,-9.770508,0.075195,1.31543,-0.006348,0.153076,-0.073242,0.,0.,0.,2.816162,-0.011719,0.048584,0.238281,107,44,147,293
25.412,14:37:40.412,-9.980469,0.874023,0.839844,-0.019043,0.016846,-0.048828,0.,0.,0.,2.816406,-0.011719,0.04834,0.238281,105,44,146,293
25.512,14:37:40.512,-11.042969,0.579102,-0.398438,0.000977,0.023193,-0.054199,0.,0.,0.,2.81665,-0.011719,0.048584,0.234375,104,44,146,293
25.612,14:37:40.612,-10.042969,-0.774414,-1.295898,0.00415,0.015869,-0.009521,0.,0.,0.,2.817383,-0.011475,0.049072,0.234375,104,44,146,217
25.712,14:37:40.712,-10.042969,-0.774414,-1.295898,0.00415,0.015869,-0.009521,0.,0.,0.,2.817383,-0.011475,0.049072,0.234375,104,44,146,217
25.812,14:37:40.812,-8.893555,0.179688,-0.141602,-0.026367,0.016846,-0.054199,0.,0.,0.,2.817383,-0.011719,0.049072,0.238281,104,44,146,255
25.912,14:37:40.912,-8.893555,0.179688,-0.141602,-0.026367,0.016846,-0.054199,0.,0.,0.,2.817383,-0.011719,0.049072,0.238281,104,44,146,255
26.012,14:37:41.012,-10.790039,0.132812,-0.393555,-0.015869,0.052979,-0.107422,0.,0.,0.,2.817383,-0.011963,0.049072,0.238281,104,44,146,141
26.112,14:37:41.112,-10.790039,0.132812,-0.393555,-0.015869,0.052979,-0.107422,0.,0.,0.,2.817383,-0.011963,0.049072,0.238281,104,44,146,141
26.212,14:37:41.212,-10.646484,0.460938,0.949219,-0.00415,-0.029785,-0.05835,0.,0.,0.,2.817627,-0.011719,0.049072,0.238281,104,44,148,141
26.312,14:37:41.312,-11.191406,0.260742,-0.517578,0.019043,-0.013672,0.014893,0.,0.,0.,2.818359,-0.011475,0.049072,0.234375,104,44,146,293
26.412,14:37:41.412,-8.927734,0.375,-0.151367,-0.029785,-0.043457,0.024414,0.,0.,0.,2.818604,-0.011719,0.049072,0.238281,104,44,146,293
26.512,14:37:41.512,-9.353516,-0.24707,-0.873047,-0.003174,-0.012695,-0.041504,0.,0.,0.,2.818604,-0.011719,0.049316,0.238281,104,44,147,294
26.612,14:37:41.612,-9.879883,-0.598633,0.084961,-0.015869,-0.009521,-0.009521,0.,0.,0.,2.818848,-0.011475,0.049316,0.238281,104,44,147,294
26.712,14:37:41.712,-9.051758,0.489258,0.118164,-0.026367,0.108398,-0.046631,0.,0.,0.,2.819092,-0.011475,0.049316,0.238281,105,44,148,294
26.812,14:37:41.812,-11.416992,0.608398,-0.246094,-0.015869,0.00415,-0.043457,0.,0.,0.,2.819336,-0.01123,0.049316,0.234375,105,44,147,294
26.912,14:37:41.912,-10.,0.746094,0.583984,-0.015869,-0.007324,-0.02124,0.,0.,0.,2.81958,-0.010986,0.049316,0.238281,105,44,147,294
27.012,14:37:42.012,-10.,0.746094,0.583984,-0.015869,-0.007324,-0.02124,0.,0.,0.,2.81958,-0.010986,0.049316,0.238281,105,44,147,294
27.112,14:37:42.112,-10.02832,0.883789,-0.754883,-0.105225,1.006592,-0.204102,0.,0.,0.,2.818115,-0.022705,0.091553,0.234375,105,44,146,294
27.212,14:37:42.212,-11.837891,-0.494141,-1.419922,0.160645,-0.739502,0.049805,0.,0.,0.,2.849854,0.05957,-0.006592,0.210938,103,45,148,295
27.312,14:37:42.312,-8.764648,0.84082,-0.488281,0.261719,-0.11377,0.107422,0.,0.,0.,2.873535,0.051025,0.023926,0.210938,101,47,91,297
27.412,14:37:42.412,-9.401367,0.327148,-0.436523,0.273438,0.415039,-0.172363,0.,0.,0.,2.897461,0.047363,0.007812,0.210938,99,102,54,297
27.512,14:37:42.512,-9.832031,-0.071289,-0.413086,0.090332,0.114746,0.277588,0.,0.,0.,3.040283,0.154053,0.024658,0.328125,98,148,130,297
27.612,14:37:42.612,-10.50293,0.166016,0.070312,0.104248,0.150879,-0.11792,0.,0.,0.,3.047363,0.145264,0.030029,0.277344,100,151,128,295
27.712,14:37:42.712,-10.50293,0.166016,0.070312,0.104248,0.150879,-0.11792,0.,0.,0.,3.047363,0.145264,0.030029,0.277344,100,151,128,295
27.812,14:37:42.812,-12.144531,-0.731445,0.630859,0.038086,0.010498,-0.619141,0.,0.,0.,3.061768,-0.046875,0.041748,0.203125,103,160,120,218
27.912,14:37:42.912,-12.144531,-0.731445,0.630859,0.038086,0.010498,-0.619141,0.,0.,0.,3.061768,-0.046875,0.041748,0.203125,103,160,120,218
28.012,14:37:43.012,-10.938477,0.066406,-0.421875,0.024414,0.086182,-0.022217,0.,0.,0.,3.063232,-0.118408,0.049805,0.203125,103,165,111,106
28.112,14:37:43.112,-10.938477,0.066406,-0.421875,0.024414,0.086182,-0.022217,0.,0.,0.,3.063232,-0.118408,0.049805,0.203125,103,165,111,106
28.212,14:37:43.212,-10.498047,0.255859,0.664062,-0.027588,0.032959,-0.17334,0.,0.,0.,3.064941,-0.105469,0.055664,0.203125,104,174,105,104
28.312,14:37:43.312,-10.498047,0.255859,0.664062,-0.027588,0.032959,-0.17334,0.,0.,0.,3.064941,-0.105469,0.055664,0.203125,104,174,105,104
28.412,14:37:43.412,-10.46875,0.289062,0.061523,-0.044678,-0.075439,0.174316,0.,0.,0.,3.06543,-0.089111,0.054443,0.203125,102,179,93,101
28.512,14:37:43.512,-10.46875,0.289062,0.061523,-0.044678,-0.075439,0.174316,0.,0.,0.,3.06543,-0.089111,0.054443,0.203125,102,179,93,101
28.612,14:37:43.612,-9.348633,0.460938,-0.303711,-0.040283,-0.010498,0.073242,0.,0.,0.,3.065674,-0.079834,0.050537,0.203125,100,188,86,99
28.712,14:37:43.712,-9.9375,0.499023,-0.806641,0.019043,0.667236,-0.63623,0.,0.,0.,3.065186,-0.101562,0.074951,0.203125,101,195,76,96
28.812,14:37:43.812,-10.454102,0.741211,-1.224609,-0.018066,0.137207,-0.22876,0.,0.,0.,3.065918,-0.12207,0.105957,0.203125,102,207,70,94
28.912,14:37:43.912,-10.454102,0.741211,-1.224609,-0.018066,0.137207,-0.22876,0.,0.,0.,3.065918,-0.12207,0.105957,0.203125,102,207,70,94
29.012,14:37:44.012,-9.19043,-0.34668,-1.756836,0.05835,0.588379,-0.20752,0.,0.,0.,3.064453,-0.148926,0.154785,0.203125,103,210,63,94
29.112,14:37:44.112,-9.19043,-0.34668,-1.756836,0.05835,0.588379,-0.20752,0.,0.,0.,3.064453,-0.148926,0.154785,0.203125,103,210,63,94
29.212,14:37:44.212,-10.02832,0.789062,0.013672,-0.011475,0.229736,-0.132812,0.,0.,0.,3.06665,-0.159912,0.181152,0.203125,104,210,59,93
29.312,14:37:44.312,-10.02832,0.789062,0.013672,-0.011475,0.229736,-0.132812,0.,0.,0.,3.06665,-0.159912,0.181152,0.203125,104,210,59,93
29.412,14:37:44.412,-8.424805,-0.108398,0.688477,-0.104248,-0.235107,0.064697,0.,0.,0.,3.06665,-0.159668,0.18335,0.207031,105,210,54,93
29.512,14:37:44.512,-9.736328,-0.408203,1.333984,-0.131836,-0.178711,0.05957,0.,0.,0.,3.065918,-0.154541,0.135742,0.203125,106,210,52,206
29.612,14:37:44.612,-9.056641,-0.394531,0.18457,-0.235107,-1.730225,0.594727,0.,0.,0.,3.063965,-0.140381,0.087158,0.203125,104,210,52,282
29.712,14:37:44.712,-9.056641,-0.394531,0.18457,-0.235107,-1.730225,0.594727,0.,0.,0.,3.063965,-0.140381,0.087158,0.203125,104,210,52,282
29.812,14:37:44.812,-10.727539,0.68457,-0.12793,-0.174316,-0.318115,0.049805,0.,0.,0.,3.063965,-0.099365,-0.067139,0.203125,103,208,53,171
29.912,14:37:44.912,-10.727539,0.68457,-0.12793,-0.174316,-0.318115,0.049805,0.,0.,0.,3.063965,-0.099365,-0.067139,0.203125,103,208,53,171
30.012,14:37:45.012,-11.186523,0.260742,-0.484375,0.005127,0.388428,0.006348,0.,0.,0.,3.061523,-0.072998,-0.104004,0.203125,100,204,57,97
30.112,14:37:45.112,-11.186523,0.260742,-0.484375,0.005127,0.388428,0.006348,0.,0.,0.,3.061523,-0.072998,-0.104004,0.203125,100,204,57,97
30.212,14:37:45.212,-11.186523,0.260742,-0.484375,0.005127,0.388428,0.006348,0.,0.,0.,3.061523,-0.072998,-0.104004,0.203125,100,204,57,97
30.312,14:37:45.312,-9.841797,-0.137695,-1.182617,-0.008301,0.855469,0.044678,0.,0.,0.,3.086426,0.078125,0.04248,0.203125,104,159,110,143
30.412,14:37:45.412,-9.841797,-0.137695,-1.182617,-0.008301,0.855469,0.044678,0.,0.,0.,3.086426,0.078125,0.04248,0.203125,104,159,110,143
30.512,14:37:45.512,-9.841797,0.023438,1.106445,-0.024414,0.479736,-0.018066,0.,0.,0.,3.093994,0.09082,0.151855,0.210938,106,154,114,251
30.612,14:37:45.612,-9.841797,0.023438,1.106445,-0.024414,0.479736,-0.018066,0.,0.,0.,3.093994,0.09082,0.151855,0.210938,106,154,114,251
30.712,14:37:45.712,-8.865234,0.789062,2.378906,0.111572,-1.432373,0.005127,0.,0.,0.,3.098389,0.095459,0.140137,0.238281,106,151,120,287
30.812,14:37:45.812,-8.865234,0.789062,2.378906,0.111572,-1.432373,0.005127,0.,0.,0.,3.098389,0.095459,0.140137,0.238281,106,151,120,287
30.912,14:37:45.912,-9.386719,0.375,-0.788086,0.135986,-0.226562,-0.039307,0.,0.,0.,3.099854,0.097168,-0.005371,0.253906,106,148,122,287
31.012,14:37:46.012,-10.229492,-0.613281,-0.854492,0.049805,-0.015869,-0.149902,0.,0.,0.,3.105469,0.089844,-0.039795,0.257812,107,146,126,286
31.112,14:37:46.112,-9.861328,0.199219,0.033203,0.047852,-0.05957,-0.012695,0.,0.,0.,3.112549,0.077881,-0.009033,0.253906,108,145,127,285
31.212,14:37:46.212,-10.574219,-0.104492,0.96875,0.029785,0.443604,-0.684082,0.,0.,0.,3.116455,0.044678,0.01001,0.238281,109,144,130,273
31.312,14:37:46.312,-9.166992,0.959961,-0.336914,0.027588,0.163818,-0.304199,0.,0.,0.,3.120361,0.016602,0.023438,0.210938,110,144,130,238
31.412,14:37:46.412,-10.023438,0.189453,-0.474609,0.027588,0.049805,0.069092,0.,0.,0.,3.124512,0.012207,0.039062,0.199219,110,145,131,238
31.512,14:37:46.512,-10.023438,0.189453,-0.474609,0.027588,0.049805,0.069092,0.,0.,0.,3.124512,0.012207,0.039062,0.199219,110,145,131,238
31.612,14:37:46.612,-9.396484,0.708008,-0.522461,0.084961,0.008301,-0.075439,0.,0.,0.,3.138672,0.012207,0.05542,0.199219,113,152,122,230
31.712,14:37:46.712,-9.396484,0.708008,-0.522461,0.084961,0.008301,-0.075439,0.,0.,0.,3.138672,0.012207,0.05542,0.199219,113,152,122,230
31.812,14:37:46.812,-10.071289,-0.336914,1.604492,-0.024414,0.076416,-0.373535,0.,0.,0.,-3.133545,-0.022705,0.074707,0.199219,118,162,114,208
31.912,14:37:46.912,-9.708008,-0.764648,-1.666992,-0.029785,0.008301,-0.114746,0.,0.,0.,-3.132324,-0.045166,0.075684,0.199219,119,165,110,205
32.012,14:37:47.012,-9.708008,-0.764648,-1.666992,-0.029785,0.008301,-0.114746,0.,0.,0.,-3.132324,-0.045166,0.075684,0.199219,119,165,110,205
32.112,14:37:47.112,-10.219727,-0.741211,-0.413086,-0.023193,-0.045654,-0.172363,0.,0.,0.,-3.130615,-0.059814,0.078857,0.214844,119,169,108,180
32.212,14:37:47.212,-10.219727,-0.741211,-0.413086,-0.023193,-0.045654,-0.172363,0.,0.,0.,-3.130615,-0.059814,0.078857,0.214844,119,169,108,180
32.312,14:37:47.312,-9.55957,-0.360352,0.963867,-0.027588,0.039307,-0.032959,0.,0.,0.,-3.129883,-0.068604,0.082275,0.222656,120,172,103,108
32.412,14:37:47.412,-9.55957,-0.360352,0.963867,-0.027588,0.039307,-0.032959,0.,0.,0.,-3.129883,-0.068604,0.082275,0.222656,120,172,103,108
32.512,14:37:47.512,-9.894531,0.298828,-0.383789,-0.029785,0.060547,-0.099854,0.,0.,0.,-3.130615,-0.074707,0.08374,0.242188,122,175,101,86
32.612,14:37:47.612,-9.894531,0.298828,-0.383789,-0.029785,0.060547,-0.099854,0.,0.,0.,-3.130615,-0.074707,0.08374,0.242188,122,175,101,86
32.712,14:37:47.712,-8.832031,0.275391,0.279297,-0.048828,0.04248,-0.032959,0.,0.,0.,-3.130127,-0.074951,0.083008,0.273438,121,178,98,89
32.812,14:37:47.812,-9.952148,0.175781,-1.134766,0.011475,0.570312,-0.007324,0.,0.,0.,-3.130371,-0.074707,0.095459,0.28125,120,154,97,88
32.912,14:37:47.912,-9.726562,0.617188,-0.982422,-0.005127,0.407471,-0.039307,0.,0.,0.,-3.130859,-0.076172,0.195557,0.261719,119,139,96,87
33.012,14:37:48.012,-9.669922,-0.041992,0.118164,-0.052979,-0.238281,0.099854,0.,0.,0.,-3.12793,-0.068359,0.209961,0.210938,119,164,96,131
33.112,14:37:48.112,-9.669922,-0.041992,0.118164,-0.052979,-0.238281,0.099854,0.,0.,0.,-3.12793,-0.068359,0.209961,0.210938,119,164,96,131
33.212,14:37:48.212,-10.416016,-0.517578,-0.916016,-0.011475,0.000977,-0.205322,0.,0.,0.,-3.072021,-0.041992,0.028809,0.203125,97,160,120,235
33.312,14:37:48.312,-10.416016,-0.517578,-0.916016,-0.011475,0.000977,-0.205322,0.,0.,0.,-3.072021,-0.041992,0.028809,0.203125,97,160,120,235
33.412,14:37:48.412,-9.961914,0.356445,-1.828125,-0.02002,0.147705,0.565918,0.,0.,0.,-3.06958,-0.023193,0.043945,0.203125,98,163,119,211
33.512,14:37:48.512,-9.961914,0.356445,-1.828125,-0.02002,0.147705,0.565918,0.,0.,0.,-3.06958,-0.023193,0.043945,0.203125,98,163,119,211
33.612,14:37:48.612,-9.018555,0.489258,-0.493164,0.033936,0.090332,0.169189,0.,0.,0.,-3.066895,-0.003174,0.04834,0.222656,99,164,116,196
33.712,14:37:48.712,-9.018555,0.489258,-0.493164,0.033936,0.090332,0.169189,0.,0.,0.,-3.066895,-0.003174,0.04834,0.222656,99,164,116,196
33.812,14:37:48.812,-9.353516,0.275391,0.887695,0.029785,-0.010498,-0.139404,0.,0.,0.,-3.064209,0.006104,0.050049,0.246094,101,166,113,253
33.912,14:37:48.912,-9.353516,0.275391,0.887695,0.029785,-0.010498,-0.139404,0.,0.,0.,-3.064209,0.006104,0.050049,0.246094,101,166,113,253
34.012,14:37:49.012,-9.353516,0.275391,0.887695,0.029785,-0.010498,-0.139404,0.,0.,0.,-3.064209,0.006104,0.050049,0.246094,101,166,113,253
34.112,14:37:49.112,-9.353516,0.275391,0.887695,0.029785,-0.010498,-0.139404,0.,0.,0.,-3.064209,0.006104,0.050049,0.246094,101,166,113,253
34.212,14:37:49.212,-9.081055,0.037109,1.125,0.024414,0.075439,-0.167969,0.,0.,0.,-3.056641,-0.005859,0.057129,0.28125,103,170,110,178
34.312,14:37:49.312,-9.081055,0.037109,1.125,0.024414,0.075439,-0.167969,0.,0.,0.,-3.056641,-0.005859,0.057129,0.28125,103,170,110,178
34.412,14:37:49.412,-9.607422,0.327148,0.360352,-0.005127,0.149902,-0.07959,0.,0.,0.,-3.030029,-0.016846,0.045898,0.257812,117,178,98,184
34.512,14:37:49.512,-9.28125,-0.469727,0.484375,0.001953,0.123291,0.162598,0.,0.,0.,-3.028076,-0.012207,0.049072,0.277344,119,176,99,115
34.612,14:37:49.612,-9.205078,1.387695,1.025391,0.044678,-0.015869,0.123291,0.,0.,0.,-3.024902,-0.004639,0.057861,0.289062,122,174,101,114
34.712,14:37:49.712,-9.914062,0.469727,-0.887695,0.028564,1.232178,0.09668,0.,0.,0.,-3.021729,-0.000488,0.087891,0.292969,124,172,102,181
34.812,14:37:49.812,-9.477539,0.588867,1.448242,-0.022217,0.172363,-0.000977,0.,0.,0.,-3.01709,0.010254,0.165527,0.285156,124,170,104,205
34.912,14:37:49.912,-10.244141,0.02832,0.640625,0.008301,-1.945312,0.04248,0.,0.,0.,-3.015137,0.01416,0.12207,0.277344,124,168,106,209
35.012,14:37:50.012,-10.244141,0.02832,0.640625,0.008301,-1.945312,0.04248,0.,0.,0.,-3.015137,0.01416,0.12207,0.277344,124,168,106,209
35.112,14:37:50.112,-9.851562,0.089844,0.911133,0.037109,-0.212646,-0.099854,0.,0.,0.,-3.013184,0.019531,0.015137,0.261719,124,166,110,210
35.212,14:37:50.212,-9.851562,0.089844,0.911133,0.037109,-0.212646,-0.099854,0.,0.,0.,-3.013184,0.019531,0.015137,0.261719,124,166,110,210
35.312,14:37:50.312,-10.397461,0.541016,0.835938,0.031738,0.373535,0.09668,0.,0.,0.,-3.009766,0.03125,-0.016113,0.25,124,165,109,208
35.412,14:37:50.412,-10.397461,0.541016,0.835938,0.031738,0.373535,0.09668,0.,0.,0.,-3.009766,0.03125,-0.016113,0.25,124,165,109,208
35.512,14:37:50.512,-10.15332,0.469727,1.723633,-0.014893,-0.223389,0.223389,0.,0.,0.,-3.006592,0.032471,0.004395,0.25,124,163,109,208
35.612,14:37:50.612,-10.15332,0.469727,1.723633,-0.014893,-0.223389,0.223389,0.,0.,0.,-3.006592,0.032471,0.004395,0.25,124,163,109,208
35.712,14:37:50.712,-9.84668,0.665039,1.177734,0.052979,0.273438,-0.154297,0.,0.,0.,-3.003174,0.02417,0.026123,0.257812,124,162,110,209
35.812,14:37:50.812,-9.84668,0.665039,1.177734,0.052979,0.273438,-0.154297,0.,0.,0.,-3.003174,0.02417,0.026123,0.257812,124,162,110,209
35.912,14:37:50.912,-10.607422,-0.860352,-0.421875,0.015869,0.083008,-0.185059,0.,0.,0.,-3.000977,0.024414,0.026367,0.277344,124,161,112,210
36.012,14:37:51.012,-9.818359,-0.512695,-0.451172,0.044678,0.026367,0.102051,0.,0.,0.,-2.997559,0.019531,0.032471,0.289062,124,161,112,211
36.112,14:37:51.112,-9.669922,0.550781,-0.455078,0.037109,0.026367,0.,0.,0.,0.,-2.993652,0.022217,0.037598,0.300781,124,161,112,211
36.212,14:37:51.212,-9.607422,-0.298828,0.788086,0.022217,0.115967,-0.184082,0.,0.,0.,-2.989502,0.02124,0.039551,0.304688,125,162,111,208
36.312,14:37:51.312,-10.02832,-0.113281,-0.413086,0.036133,0.007324,-0.073242,0.,0.,0.,-2.98584,0.015381,0.04126,0.304688,125,164,111,211
36.412,14:37:51.412,-9.272461,-0.084961,-0.375,-0.014893,-0.000977,-0.110596,0.,0.,0.,-2.981934,0.008301,0.043457,0.296875,125,166,110,218
36.512,14:37:51.512,-10.55957,0.061523,0.859375,0.010498,0.121094,-0.049805,0.,0.,0.,-2.980225,0.003418,0.043457,0.292969,127,169,110,212
36.612,14:37:51.612,-10.808594,-0.175781,0.768555,0.006348,-0.024414,-0.075439,0.,0.,0.,-2.977783,0.000488,0.044434,0.28125,127,171,110,204
36.712,14:37:51.712,-10.808594,-0.175781,0.768555,0.006348,-0.024414,-0.075439,0.,0.,0.,-2.977783,0.000488,0.044434,0.28125,127,171,110,204
36.812,14:37:51.812,-10.209961,0.24707,0.87793,0.018066,-0.009521,-0.067871,0.,0.,0.,-2.974854,-0.000488,0.044434,0.277344,127,174,111,201
36.912,14:37:51.912,-10.209961,0.24707,0.87793,0.018066,-0.009521,-0.067871,0.,0.,0.,-2.974854,-0.000488,0.044434,0.277344,127,174,111,201
37.012,14:37:52.012,-10.296875,0.978516,1.637695,0.041504,0.164795,-0.223389,0.,0.,0.,-2.972656,-0.012939,0.053467,0.273438,127,176,106,197
37.112,14:37:52.112,-10.296875,0.978516,1.637695,0.041504,0.164795,-0.223389,0.,0.,0.,-2.972656,-0.012939,0.053467,0.273438,127,176,106,197
37.212,14:37:52.212,-10.334961,0.237305,0.735352,0.,-0.006348,-0.134033,0.,0.,0.,-2.969971,-0.020508,0.056152,0.28125,128,179,103,189
37.312,14:37:52.312,-9.62207,0.227539,-0.849609,0.028564,-0.00415,-0.198975,0.,0.,0.,-2.966064,-0.027344,0.058838,0.285156,128,181,100,178
37.412,14:37:52.412,-9.62207,0.227539,-0.849609,0.028564,-0.00415,-0.198975,0.,0.,0.,-2.966064,-0.027344,0.058838,0.285156,128,181,100,178
37.512,14:37:52.512,-10.114258,-0.40332,0.96875,-0.018066,-0.110596,-0.027588,0.,0.,0.,-2.945312,0.012451,0.016602,0.285156,147,189,92,173
37.612,14:37:52.612,-10.267578,1.292969,1.295898,0.039307,0.195801,-0.084961,0.,0.,0.,-2.942627,0.016357,0.025879,0.304688,146,186,95,167
37.712,14:37:52.712,-9.46875,-0.427734,-0.451172,0.009521,0.075439,-0.000977,0.,0.,0.,-2.940918,0.000244,0.030029,0.324219,146,183,97,176
37.812,14:37:52.812,-9.578125,1.074219,1.647461,0.02124,0.20752,0.160645,0.,0.,0.,-2.939697,0.001465,0.041016,0.34375,149,182,100,182
37.912,14:37:52.912,-9.214844,-0.555664,0.550781,-0.003174,0.140381,0.003174,0.,0.,0.,-2.9375,0.013184,0.063965,0.355469,151,182,101,181
38.012,14:37:53.012,-9.932617,0.289062,0.199219,-0.003174,-0.013672,0.018066,0.,0.,0.,-2.898438,-0.037842,0.117676,0.335938,153,185,105,166
38.112,14:37:53.112,-9.932617,0.289062,0.199219,-0.003174,-0.013672,0.018066,0.,0.,0.,-2.898438,-0.037842,0.117676,0.335938,153,185,105,166
38.212,14:37:53.212,-9.224609,-0.441406,0.977539,0.008301,0.107422,-0.074463,0.,0.,0.,-2.89624,-0.034424,0.116943,0.335938,151,184,105,135
38.312,14:37:53.312,-9.224609,-0.441406,0.977539,0.008301,0.107422,-0.074463,0.,0.,0.,-2.89624,-0.034424,0.116943,0.335938,151,184,105,135
38.412,14:37:53.412,-10.110352,-0.293945,-0.075195,-0.063721,-0.49585,0.260498,0.,0.,0.,-2.894043,-0.025879,0.104736,0.335938,147,185,105,137
38.512,14:37:53.512,-10.110352,-0.293945,-0.075195,-0.063721,-0.49585,0.260498,0.,0.,0.,-2.894043,-0.025879,0.104736,0.335938,147,185,105,137
38.612,14:37:53.612,-8.90332,0.118164,0.179688,0.026367,-0.051025,0.090332,0.,0.,0.,-2.892822,-0.006836,0.06958,0.332031,144,188,106,173
38.712,14:37:53.712,-10.133789,0.166016,-0.227539,0.00415,-0.25415,-0.033936,0.,0.,0.,-2.890381,0.003662,0.050049,0.328125,139,185,108,176
38.812,14:37:53.812,-10.392578,0.166016,1.257812,0.016846,0.000977,-0.039307,0.,0.,0.,-2.886719,0.007324,0.040527,0.324219,136,183,110,148
38.912,14:37:53.912,-10.392578,0.166016,1.257812,0.016846,0.000977,-0.039307,0.,0.,0.,-2.886719,0.007324,0.040527,0.324219,136,183,110,148
39.012,14:37:54.012,-10.196289,0.123047,1.90918,0.015869,0.030762,0.090332,0.,0.,0.,-2.882812,0.011963,0.036133,0.324219,131,175,112,140
39.112,14:37:54.112,-10.196289,0.123047,1.90918,0.015869,0.030762,0.090332,0.,0.,0.,-2.882812,0.011963,0.036133,0.324219,131,175,112,140
39.212,14:37:54.212,-9.688477,0.446289,0.839844,0.043457,0.032959,0.024414,0.,0.,0.,-2.881348,0.016846,0.036377,0.328125,128,171,113,146
39.312,14:37:54.312,-9.774414,-0.456055,0.426758,-0.02002,-0.011475,0.055176,0.,0.,0.,-2.879395,0.023193,0.035889,0.332031,125,168,115,149
39.412,14:37:54.412,-10.392578,-0.736328,-1.400391,0.,-0.074463,-0.02002,0.,0.,0.,-2.876709,0.024902,0.037598,0.335938,122,167,116,152
39.512,14:37:54.512,-10.239258,0.674805,1.514648,0.005127,0.052002,-0.055176,0.,0.,0.,-2.891602,-0.057617,0.01416,0.324219,86,162,117,176
39.612,14:37:54.612,-9.320312,-0.327148,-1.5625,-0.025391,0.095703,-0.05957,0.,0.,0.,-2.893799,-0.076416,0.053467,0.339844,94,167,114,172
39.712,14:37:54.712,-9.320312,-0.327148,-1.5625,-0.025391,0.095703,-0.05957,0.,0.,0.,-2.893799,-0.076416,0.053467,0.339844,94,167,114,172
39.812,14:37:54.812,-10.516602,-1.05957,0.189453,0.011475,0.356445,-0.076416,0.,0.,0.,-2.892578,-0.078369,0.072754,0.347656,101,163,114,169
39.912,14:37:54.912,-10.516602,-1.05957,0.189453,0.011475,0.356445,-0.076416,0.,0.,0.,-2.892578,-0.078369,0.072754,0.347656,101,163,114,169
40.012,14:37:55.012,-10.382812,-0.850586,-0.151367,-0.034912,0.45752,0.30542,0.,0.,0.,-2.893555,-0.061279,0.113281,0.355469,111,130,116,163
40.112,14:37:55.112,-10.382812,-0.850586,-0.151367,-0.034912,0.45752,0.30542,0.,0.,0.,-2.893555,-0.061279,0.113281,0.355469,111,130,116,163
40.212,14:37:55.212,-9.655273,0.865234,-0.179688,0.018066,0.137207,0.143555,0.,0.,0.,-2.886719,0.013184,0.166992,0.351562,130,167,123,204
40.312,14:37:55.312,-9.655273,0.865234,-0.179688,0.018066,0.137207,0.143555,0.,0.,0.,-2.886719,0.013184,0.166992,0.351562,130,167,123,204
40.412,14:37:55.412,-9.655273,0.865234,-0.179688,0.018066,0.137207,0.143555,0.,0.,0.,-2.886719,0.013184,0.166992,0.351562,130,167,123,204
40.512,14:37:55.512,-9.655273,0.865234,-0.179688,0.018066,0.137207,0.143555,0.,0.,0.,-2.886719,0.013184,0.166992,0.351562,130,167,123,204
40.612,14:37:55.612,-9.665039,-0.270508,1.020508,0.054199,-0.051025,-0.103027,0.,0.,0.,-2.86792,0.024658,0.071045,0.363281,146,134,150,216
40.712,14:37:55.712,-9.665039,-0.270508,1.020508,0.054199,-0.051025,-0.103027,0.,0.,0.,-2.86792,0.024658,0.071045,0.363281,146,134,150,216
40.812,14:37:55.812,-9.330078,0.099609,0.522461,-0.011475,-0.316895,-0.315918,0.,0.,0.,-2.865967,0.034912,0.053223,0.375,143,115,162,228
40.912,14:37:55.912,-9.779297,0.560547,0.873047,-0.001953,-0.0979,-0.193604,0.,0.,0.,-2.866943,0.019531,0.039307,0.378906,142,112,168,230
41.012,14:37:56.012,-9.779297,0.560547,0.873047,-0.001953,-0.0979,-0.193604,0.,0.,0.,-2.866943,0.019531,0.039307,0.378906,142,112,168,230
41.112,14:37:56.112,-10.727539,0.061523,-1.257812,-0.00415,-0.269043,0.298828,0.,0.,0.,-2.864502,0.049561,0.047852,0.371094,130,90,183,258
41.212,14:37:56.212,-10.856445,-0.108398,-1.519531,0.009521,-0.05957,0.033936,0.,0.,0.,-2.863037,0.058105,0.036133,0.371094,128,90,183,259
41.312,14:37:56.312,-9.526367,-0.132812,-0.018555,0.028564,0.028564,-0.310547,0.,0.,0.,-2.861572,0.052734,0.03125,0.375,127,91,185,268
41.412,14:37:56.412,-9.526367,-0.132812,-0.018555,0.028564,0.028564,-0.310547,0.,0.,0.,-2.861572,0.052734,0.03125,0.375,127,91,185,268
41.512,14:37:56.512,-9.922852,-0.398438,0.711914,0.02124,-0.013672,-0.062744,0.,0.,0.,-2.851562,-0.001221,0.030518,0.394531,117,101,181,279
41.612,14:37:56.612,-9.922852,-0.398438,0.711914,0.02124,-0.013672,-0.062744,0.,0.,0.,-2.851562,-0.001221,0.030518,0.394531,117,101,181,279
41.712,14:37:56.712,-9.511719,0.142578,-0.588867,-0.001953,-0.049805,-0.396729,0.,0.,0.,-2.848389,-0.016602,0.032471,0.40625,116,103,175,280
41.812,14:37:56.812,-9.511719,0.142578,-0.588867,-0.001953,-0.049805,-0.396729,0.,0.,0.,-2.848389,-0.016602,0.032471,0.40625,116,103,175,280
41.912,14:37:56.912,-9.511719,0.142578,-0.588867,-0.001953,-0.049805,-0.396729,0.,0.,0.,-2.848389,-0.016602,0.032471,0.40625,116,103,175,280
42.012,14:37:57.012,-9.875,0.817383,-1.980469,-0.000977,0.131836,-0.25415,0.,0.,0.,-2.844482,-0.050293,0.037354,0.421875,115,111,167,284
42.112,14:37:57.112,-9.922852,-0.712891,0.479492,0.005127,0.087158,-0.075439,0.,0.,0.,-2.844971,-0.060059,0.047119,0.425781,118,115,164,272
42.212,14:37:57.212,-9.544922,-0.479492,-1.338867,-0.033936,0.066895,-0.007324,0.,0.,0.,-2.844727,-0.076172,0.070801,0.421875,114,122,157,227
42.312,14:37:57.312,-9.544922,-0.479492,-1.338867,-0.033936,0.066895,-0.007324,0.,0.,0.,-2.844727,-0.076172,0.070801,0.421875,114,122,157,227
42.412,14:37:57.412,-9.02832,-0.251953,-0.289062,-0.077637,-0.324463,0.282959,0.,0.,0.,-2.84375,-0.058105,0.053955,0.414062,113,126,152,233
42.512,14:37:57.512,-9.02832,-0.251953,-0.289062,-0.077637,-0.324463,0.282959,0.,0.,0.,-2.84375,-0.058105,0.053955,0.414062,113,126,152,233
42.612,14:37:57.612,-9.630859,-0.469727,-0.954102,0.013672,-0.018066,0.131836,0.,0.,0.,-2.843506,-0.046631,0.040283,0.402344,114,127,150,231
42.712,14:37:57.712,-9.34375,-0.142578,0.089844,0.,0.275391,-0.162598,0.,0.,0.,-2.83374,-0.00293,0.049072,0.433594,124,141,140,209
42.812,14:37:57.812,-9.980469,-1.263672,-0.40332,-0.039307,0.05957,-0.112793,0.,0.,0.,-2.833252,-0.007812,0.060059,0.441406,124,141,139,210
42.912,14:37:57.912,-9.980469,-1.263672,-0.40332,-0.039307,0.05957,-0.112793,0.,0.,0.,-2.833252,-0.007812,0.060059,0.441406,124,141,139,210
43.012,14:37:58.012,-9.736328,0.080078,1.277344,0.047852,0.105225,-0.142578,0.,0.,0.,-2.831787,-0.011719,0.066406,0.445312,124,141,135,211
43.112,14:37:58.112,-9.736328,0.080078,1.277344,0.047852,0.105225,-0.142578,0.,0.,0.,-2.831787,-0.011719,0.066406,0.445312,124,141,135,211
43.212,14:37:58.212,-9.736328,0.080078,1.277344,0.047852,0.105225,-0.142578,0.,0.,0.,-2.831787,-0.011719,0.066406,0.445312,124,141,135,211
43.312,14:37:58.312,-10.196289,0.293945,1.376953,-0.008301,0.138184,-0.024414,0.,0.,0.,-2.829102,-0.025879,0.082031,0.445312,125,144,132,217
43.412,14:37:58.412,-10.196289,0.293945,1.376953,-0.008301,0.138184,-0.024414,0.,0.,0.,-2.829102,-0.025879,0.082031,0.445312,125,144,132,217
43.512,14:37:58.512,-9.957031,-0.541016,-0.317383,0.00415,-0.001953,-0.025391,0.,0.,0.,-2.828613,-0.024658,0.085205,0.445312,125,146,131,251
43.612,14:37:58.612,-9.957031,-0.541016,-0.317383,0.00415,-0.001953,-0.025391,0.,0.,0.,-2.828613,-0.024658,0.085205,0.445312,125,146,131,251
43.712,14:37:58.712,-9.957031,-0.541016,-0.317383,0.00415,-0.001953,-0.025391,0.,0.,0.,-2.828613,-0.024658,0.085205,0.445312,125,146,131,251
43.812,14:37:58.812,-9.640625,0.293945,0.104492,-0.000977,0.063721,-0.040283,0.,0.,0.,-2.825684,-0.025146,0.084717,0.4375,127,149,144,208
43.912,14:37:58.912,-9.640625,0.293945,0.104492,-0.000977,0.063721,-0.040283,0.,0.,0.,-2.825684,-0.025146,0.084717,0.4375,127,149,144,208
44.012,14:37:59.012,-10.176758,-0.34668,-1.74707,-0.031738,-0.479736,0.257324,0.,0.,0.,-2.821533,-0.004883,0.059082,0.4375,127,151,131,217
44.112,14:37:59.112,-10.176758,-0.34668,-1.74707,-0.031738,-0.479736,0.257324,0.,0.,0.,-2.821533,-0.004883,0.059082,0.4375,127,151,131,217
44.212,14:37:59.212,-10.262695,0.432617,-0.645508,-0.011475,-0.214844,0.087158,0.,0.,0.,-2.820068,0.005127,0.042725,0.4375,127,152,131,223
44.312,14:37:59.312,-10.262695,0.432617,-0.645508,-0.011475,-0.214844,0.087158,0.,0.,0.,-2.820068,0.005127,0.042725,0.4375,127,152,131,223
44.412,14:37:59.412,-10.004883,0.503906,-0.788086,0.003174,0.112793,-0.143555,0.,0.,0.,-2.819824,0.010742,0.033936,0.429688,127,151,133,220
44.512,14:37:59.512,-10.004883,0.503906,-0.788086,0.003174,0.112793,-0.143555,0.,0.,0.,-2.819824,0.010742,0.033936,0.429688,127,151,133,220
44.612,14:37:59.612,-10.057617,-0.688477,0.892578,0.000977,-0.009521,-0.092529,0.,0.,0.,-2.81958,0.013428,0.031982,0.433594,127,150,131,207
44.712,14:37:59.712,-10.057617,-0.688477,0.892578,0.000977,-0.009521,-0.092529,0.,0.,0.,-2.81958,0.013428,0.031982,0.433594,127,150,131,207
44.812,14:37:59.812,-9.822266,-0.175781,-0.189453,-0.000977,0.281982,-0.182861,0.,0.,0.,-2.81958,0.007324,0.046387,0.441406,128,152,129,204
44.912,14:37:59.912,-9.673828,-0.955078,0.602539,-0.029785,0.116943,0.023193,0.,0.,0.,-2.819336,-0.011475,0.083252,0.453125,129,156,128,207
45.012,14:38:0.012,-9.673828,-0.955078,0.602539,-0.029785,0.116943,0.023193,0.,0.,0.,-2.819336,-0.011475,0.083252,0.453125,129,156,128,207
45.112,14:38:0.112,-9.774414,0.469727,-0.640625,-0.007324,0.064697,0.064697,0.,0.,0.,-2.819824,-0.010986,0.091553,0.464844,128,150,129,199
45.212,14:38:0.212,-9.774414,0.469727,-0.640625,-0.007324,0.064697,0.064697,0.,0.,0.,-2.819824,-0.010986,0.091553,0.464844,128,150,129,199
45.312,14:38:0.312,-9.650391,0.18457,1.15332,-0.02002,-0.02124,-0.031738,0.,0.,0.,-2.820312,-0.007812,0.086914,0.457031,128,150,129,207
45.412,14:38:0.412,-9.650391,0.18457,1.15332,-0.02002,-0.02124,-0.031738,0.,0.,0.,-2.820312,-0.007812,0.086914,0.457031,128,150,129,207
45.512,14:38:0.512,-9.72168,0.874023,-1.771484,-0.019043,-0.476562,0.09668,0.,0.,0.,-2.821289,-0.001953,0.081299,0.449219,128,148,129,207
45.612,14:38:0.612,-9.917969,0.613281,1.922852,0.015869,0.,0.014893,0.,0.,0.,-2.820801,0.01123,0.044922,0.445312,127,148,132,201
45.712,14:38:0.712,-9.803711,-0.731445,0.902344,-0.013672,-0.026367,0.033936,0.,0.,0.,-2.81958,0.015625,0.033936,0.4375,125,146,134,202
45.812,14:38:0.812,-9.487305,-0.408203,0.493164,0.015869,0.006348,-0.033936,0.,0.,0.,-2.818848,0.015625,0.044678,0.441406,124,146,134,211
45.912,14:38:0.912,-10.325195,0.474609,-1.585938,0.010498,0.499023,-0.052002,0.,0.,0.,-2.817139,0.01416,0.061523,0.449219,124,143,134,214
46.012,14:38:1.012,-9.635742,0.370117,-0.645508,-0.025391,0.144531,-0.056396,0.,0.,0.,-2.818115,0.014404,0.076172,0.453125,122,142,137,216
46.112,14:38:1.112,-9.635742,0.370117,-0.645508,-0.025391,0.144531,-0.056396,0.,0.,0.,-2.818115,0.014404,0.076172,0.453125,122,142,137,216
46.212,14:38:1.212,-10.119141,-0.489258,-0.217773,0.023193,-0.056396,0.051025,0.,0.,0.,-2.816895,0.01001,0.088135,0.460938,121,141,139,216
46.312,14:38:1.312,-10.119141,-0.489258,-0.217773,0.023193,-0.056396,0.051025,0.,0.,0.,-2.816895,0.01001,0.088135,0.460938,121,141,139,216
46.412,14:38:1.412,-9.420898,-0.123047,-0.469727,0.011475,-0.016846,-0.048828,0.,0.,0.,-2.811279,0.007812,0.072266,0.480469,115,139,138,221
46.512,14:38:1.512,-10.004883,0.469727,-0.084961,0.007324,-0.116943,-0.077637,0.,0.,0.,-2.80835,0.006836,0.066895,0.484375,114,140,140,221
46.612,14:38:1.612,-10.004883,0.469727,-0.084961,0.007324,-0.116943,-0.077637,0.,0.,0.,-2.80835,0.006836,0.066895,0.484375,114,140,140,221
46.712,14:38:1.712,-10.004883,0.469727,-0.084961,0.007324,-0.116943,-0.077637,0.,0.,0.,-2.80835,0.006836,0.066895,0.484375,114,140,140,221
46.812,14:38:1.812,-9.808594,0.303711,1.628906,-0.028564,-0.001953,-0.045654,0.,0.,0.,-2.792725,-0.047363,0.021484,0.496094,104,142,133,213
46.912,14:38:1.912,-9.808594,0.303711,1.628906,-0.028564,-0.001953,-0.045654,0.,0.,0.,-2.792725,-0.047363,0.021484,0.496094,104,142,133,213
47.012,14:38:2.012,-10.110352,0.451172,1.90918,-0.014893,0.076416,-0.001953,0.,0.,0.,-2.793457,-0.051758,0.029785,0.5,103,143,132,195
47.112,14:38:2.112,-10.171875,1.226562,1.182617,0.030762,0.072266,0.032959,0.,0.,0.,-2.795654,-0.061768,0.041504,0.503906,103,144,132,183
47.212,14:38:2.212,-10.057617,0.175781,1.287109,0.008301,0.192383,-0.043457,0.,0.,0.,-2.795166,-0.062256,0.04541,0.503906,104,144,132,182
47.312,14:38:2.312,-10.057617,0.175781,1.287109,0.008301,0.192383,-0.043457,0.,0.,0.,-2.795166,-0.062256,0.04541,0.503906,104,144,132,182
47.412,14:38:2.412,-10.057617,0.175781,1.287109,0.008301,0.192383,-0.043457,0.,0.,0.,-2.795166,-0.062256,0.04541,0.503906,104,144,132,182
47.512,14:38:2.512,-10.057617,0.175781,1.287109,0.008301,0.192383,-0.043457,0.,0.,0.,-2.795166,-0.062256,0.04541,0.503906,104,144,132,182
47.612,14:38:2.612,-10.057617,0.175781,1.287109,0.008301,0.192383,-0.043457,0.,0.,0.,-2.795166,-0.062256,0.04541,0.503906,104,144,132,182
47.712,14:38:2.712,-10.009766,0.379883,0.108398,-0.052002,-0.134033,-0.000977,0.,0.,0.,-2.817871,0.02002,0.108398,0.492188,133,133,141,204
47.812,14:38:2.812,-10.009766,0.379883,0.108398,-0.052002,-0.134033,-0.000977,0.,0.,0.,-2.817871,0.02002,0.108398,0.492188,133,133,141,204
47.912,14:38:2.912,-9.569336,-0.194336,-0.977539,-0.047852,0.060547,0.261719,0.,0.,0.,-2.844971,0.026123,0.112061,0.519531,144,110,138,243
48.012,14:38:3.012,-9.760742,0.588867,2.702148,-0.031738,-0.061523,0.063721,0.,0.,0.,-2.845459,0.032471,0.112305,0.511719,144,108,165,250
48.112,14:38:3.112,-9.760742,0.588867,2.702148,-0.031738,-0.061523,0.063721,0.,0.,0.,-2.845459,0.032471,0.112305,0.511719,144,108,165,250
48.212,14:38:3.212,-10.014648,0.389648,1.086914,-0.041504,-0.052979,0.05957,0.,0.,0.,-2.850342,0.057373,0.029297,0.503906,134,95,151,260
48.312,14:38:3.312,-10.014648,0.389648,1.086914,-0.041504,-0.052979,0.05957,0.,0.,0.,-2.850342,0.057373,0.029297,0.503906,134,95,151,260
48.412,14:38:3.412,-9.947266,0.603516,-0.237305,0.009521,-0.087158,-0.009521,0.,0.,0.,-2.852295,0.056152,0.027344,0.511719,130,93,181,267
48.512,14:38:3.512,-9.947266,0.603516,-0.237305,0.009521,-0.087158,-0.009521,0.,0.,0.,-2.852295,0.056152,0.027344,0.511719,130,93,181,267
48.612,14:38:3.612,-9.832031,-0.166016,-0.008789,-0.00415,0.029785,-0.509521,0.,0.,0.,-2.867676,0.025391,0.030762,0.515625,114,100,173,259
48.712,14:38:3.712,-9.386719,0.303711,-0.170898,-0.037109,-0.052979,-0.116943,0.,0.,0.,-2.876953,-0.039062,0.019775,0.535156,105,109,159,253
48.812,14:38:3.812,-9.386719,0.303711,-0.170898,-0.037109,-0.052979,-0.116943,0.,0.,0.,-2.876953,-0.039062,0.019775,0.535156,105,109,159,253
48.912,14:38:3.912,-9.712891,-0.446289,0.673828,0.022217,0.167969,0.080811,0.,0.,0.,-2.883789,-0.08667,0.00708,0.542969,97,127,146,193
49.012,14:38:4.012,-9.870117,0.507812,1.428711,-0.007324,0.038086,0.033936,0.,0.,0.,-2.885254,-0.083252,0.013428,0.539062,99,131,142,200
49.112,14:38:4.112,-10.176758,0.099609,-0.170898,-0.010498,0.259521,0.208496,0.,0.,0.,-2.885254,-0.056641,0.033691,0.535156,101,134,139,212
49.212,14:38:4.212,-10.176758,0.099609,-0.170898,-0.010498,0.259521,0.208496,0.,0.,0.,-2.885254,-0.056641,0.033691,0.535156,101,134,139,212
49.312,14:38:4.312,-9.669922,-0.608398,-1.5,-0.02124,0.094482,-0.049805,0.,0.,0.,-2.870117,0.007324,0.140625,0.511719,131,145,134,237
49.412,14:38:4.412,-9.669922,-0.608398,-1.5,-0.02124,0.094482,-0.049805,0.,0.,0.,-2.870117,0.007324,0.140625,0.511719,131,145,134,237
49.512,14:38:4.512,-9.669922,-0.398438,-0.484375,0.022217,-0.206299,-0.009521,0.,0.,0.,-2.866943,0.009277,0.132812,0.511719,135,144,132,202
49.612,14:38:4.612,-9.990234,-0.313477,0.179688,-0.003174,-0.003174,-0.005127,0.,0.,0.,-2.864502,0.00708,0.122314,0.511719,139,144,132,202
49.712,14:38:4.712,-10.68457,0.351562,-1.196289,-0.005127,0.001953,-0.005127,0.,0.,0.,-2.863525,0.008057,0.112061,0.519531,143,145,132,202
49.812,14:38:4.812,-10.68457,0.351562,-1.196289,-0.005127,0.001953,-0.005127,0.,0.,0.,-2.863525,0.008057,0.112061,0.519531,143,145,132,202
49.912,14:38:4.912,-10.602539,0.755859,0.963867,-0.00415,0.007324,-0.036133,0.,0.,0.,-2.861572,0.009277,0.109863,0.523438,146,148,133,200
50.012,14:38:5.012,-10.602539,0.755859,0.963867,-0.00415,0.007324,-0.036133,0.,0.,0.,-2.861572,0.009277,0.109863,0.523438,146,148,133,200
50.112,14:38:5.112,-9.917969,0.293945,-1.262695,-0.024414,-0.027588,-0.065918,0.,0.,0.,-2.860596,0.010742,0.109375,0.527344,147,149,133,199
50.212,14:38:5.212,-9.917969,0.293945,-1.262695,-0.024414,-0.027588,-0.065918,0.,0.,0.,-2.860596,0.010742,0.109375,0.527344,147,149,133,199
50.312,14:38:5.312,-9.851562,-0.217773,-0.902344,-0.003174,-0.063721,-0.02002,0.,0.,0.,-2.858643,0.009766,0.111328,0.527344,148,149,134,226
50.412,14:38:5.412,-9.333984,-0.537109,-0.204102,0.008301,0.109375,-0.026367,0.,0.,0.,-2.855225,0.01001,0.111084,0.527344,150,148,134,244
50.512,14:38:5.512,-9.660156,0.603516,0.455078,0.032959,0.034912,-0.023193,0.,0.,0.,-2.851807,0.008057,0.112305,0.527344,152,145,134,245
50.612,14:38:5.612,-9.660156,0.603516,0.455078,0.032959,0.034912,-0.023193,0.,0.,0.,-2.851807,0.008057,0.112305,0.527344,152,145,134,245
50.712,14:38:5.712,-9.544922,0.051758,0.935547,0.02124,0.049805,-0.038086,0.,0.,0.,-2.849365,0.008057,0.111084,0.53125,151,145,134,246
50.812,14:38:5.812,-9.544922,0.051758,0.935547,0.02124,0.049805,-0.038086,0.,0.,0.,-2.849365,0.008057,0.111084,0.53125,151,145,134,246
50.912,14:38:5.912,-9.635742,-0.588867,0.170898,-0.022217,-0.045654,-0.043457,0.,0.,0.,-2.846191,0.007812,0.111084,0.535156,151,147,135,247
51.012,14:38:6.012,-9.635742,-0.588867,0.170898,-0.022217,-0.045654,-0.043457,0.,0.,0.,-2.846191,0.007812,0.111084,0.535156,151,147,135,247
51.112,14:38:6.112,-9.635742,-0.588867,0.170898,-0.022217,-0.045654,-0.043457,0.,0.,0.,-2.846191,0.007812,0.111084,0.535156,151,147,135,247
51.212,14:38:6.212,-9.635742,-0.588867,0.170898,-0.022217,-0.045654,-0.043457,0.,0.,0.,-2.846191,0.007812,0.111084,0.535156,151,147,135,247
51.312,14:38:6.312,-10.110352,0.750977,0.811523,0.02002,-0.080811,-0.016846,0.,0.,0.,-2.840576,0.005127,0.044189,0.535156,150,140,137,221
51.412,14:38:6.412,-10.110352,0.750977,0.811523,0.02002,-0.080811,-0.016846,0.,0.,0.,-2.840576,0.005127,0.044189,0.535156,150,140,137,221
51.512,14:38:6.512,-10.296875,-0.34668,-1.428711,-0.018066,0.040283,-0.063721,0.,0.,0.,-2.837891,0.005859,0.026855,0.539062,147,141,139,204
51.612,14:38:6.612,-9.96582,0.255859,0.02832,0.025391,-0.061523,-0.008301,0.,0.,0.,-2.834473,0.005615,0.026855,0.542969,146,144,139,199
51.712,14:38:6.712,-9.55957,0.679688,0.212891,0.054199,0.011475,-0.032959,0.,0.,0.,-2.830811,0.005127,0.030518,0.546875,143,140,139,196
51.812,14:38:6.812,-9.55957,0.679688,0.212891,0.054199,0.011475,-0.032959,0.,0.,0.,-2.830811,0.005127,0.030518,0.546875,143,140,139,196
51.912,14:38:6.912,-10.339844,-0.764648,-0.512695,0.051025,0.019043,-0.467041,0.,0.,0.,-2.790283,-0.014893,0.027344,0.5625,114,139,137,219
52.012,14:38:7.012,-9.665039,-0.15625,-0.099609,-0.005127,-0.019043,-0.122314,0.,0.,0.,-2.786377,-0.037842,0.029541,0.570312,112,140,137,213
52.112,14:38:7.112,-9.712891,-0.408203,-0.204102,0.032959,-0.030762,-0.129639,0.,0.,0.,-2.783447,-0.053711,0.022461,0.578125,111,140,138,204
52.212,14:38:7.212,-9.712891,-0.408203,-0.204102,0.032959,-0.030762,-0.129639,0.,0.,0.,-2.783447,-0.053711,0.022461,0.578125,111,140,138,204
52.312,14:38:7.312,-9.396484,0.251953,-1.210938,0.02002,-0.087158,-0.056396,0.,0.,0.,-2.78125,-0.061279,0.016846,0.578125,111,141,138,186
52.412,14:38:7.412,-9.396484,0.251953,-1.210938,0.02002,-0.087158,-0.056396,0.,0.,0.,-2.78125,-0.061279,0.016846,0.578125,111,141,138,186
52.512,14:38:7.512,-10.162109,0.365234,0.084961,-0.02002,0.188232,0.009521,0.,0.,0.,-2.779053,0.012451,0.069336,0.5625,116,145,138,217
52.612,14:38:7.612,-10.162109,0.365234,0.084961,-0.02002,0.188232,0.009521,0.,0.,0.,-2.779053,0.012451,0.069336,0.5625,116,145,138,217
52.712,14:38:7.712,-10.162109,0.365234,0.084961,-0.02002,0.188232,0.009521,0.,0.,0.,-2.779053,0.012451,0.069336,0.5625,116,145,138,217
52.812,14:38:7.812,-9.650391,0.46582,-1.766602,0.001953,-0.009521,-0.060547,0.,0.,0.,-2.747559,0.003906,0.098877,0.578125,130,150,127,206
52.912,14:38:7.912,-9.650391,0.46582,-1.766602,0.001953,-0.009521,-0.060547,0.,0.,0.,-2.747559,0.003906,0.098877,0.578125,130,150,127,206
53.012,14:38:8.012,-9.511719,0.051758,0.764648,0.045654,0.056396,-0.051025,0.,0.,0.,-2.743896,0.004395,0.096436,0.574219,130,148,127,207
53.112,14:38:8.112,-9.511719,-0.764648,0.469727,-0.003174,-0.040283,-0.04248,0.,0.,0.,-2.739502,0.004395,0.094971,0.570312,128,148,130,209
53.212,14:38:8.212,-10.373047,0.227539,-1.894531,0.05957,-0.034912,-0.012695,0.,0.,0.,-2.736816,0.004395,0.092041,0.570312,127,148,130,176
53.312,14:38:8.312,-10.545898,0.175781,-1.647461,0.032959,0.075439,-0.063721,0.,0.,0.,-2.732422,0.001465,0.090576,0.566406,125,147,129,155
53.412,14:38:8.412,-10.206055,0.232422,0.612305,0.02124,-0.041504,-0.357422,0.,0.,0.,-2.729004,-0.01709,0.089844,0.5625,124,147,129,168
53.512,14:38:8.512,-9.358398,-0.175781,1.295898,-0.011475,-0.016846,-0.161621,0.,0.,0.,-2.72583,-0.029785,0.089355,0.566406,119,146,131,177
53.612,14:38:8.612,-9.358398,-0.175781,1.295898,-0.011475,-0.016846,-0.161621,0.,0.,0.,-2.72583,-0.029785,0.089355,0.566406,119,146,131,177
53.712,14:38:8.712,-10.206055,-0.8125,0.341797,0.025391,-0.221191,0.19043,0.,0.,0.,-2.724609,-0.030029,0.08374,0.570312,117,146,132,172
53.812,14:38:8.812,-10.206055,-0.8125,0.341797,0.025391,-0.221191,0.19043,0.,0.,0.,-2.724609,-0.030029,0.08374,0.570312,117,146,132,172
53.912,14:38:8.912,-9.793945,-0.479492,0.62207,-0.00415,-0.150879,0.088135,0.,0.,0.,-2.72168,-0.003418,0.043701,0.570312,114,145,132,170
54.012,14:38:9.012,-9.793945,-0.479492,0.62207,-0.00415,-0.150879,0.088135,0.,0.,0.,-2.72168,-0.003418,0.043701,0.570312,114,145,132,170
54.112,14:38:9.112,-9.703125,-0.194336,0.070312,-0.001953,-0.313721,0.124512,0.,0.,0.,-2.719238,0.007812,0.027832,0.566406,112,144,130,169
54.212,14:38:9.212,-9.703125,-0.194336,0.070312,-0.001953,-0.313721,0.124512,0.,0.,0.,-2.719238,0.007812,0.027832,0.566406,112,144,130,169
54.312,14:38:9.312,-9.703125,-0.194336,0.070312,-0.001953,-0.313721,0.124512,0.,0.,0.,-2.719238,0.007812,0.027832,0.566406,112,144,130,169
54.412,14:38:9.412,-9.703125,-0.194336,0.070312,-0.001953,-0.313721,0.124512,0.,0.,0.,-2.719238,0.007812,0.027832,0.566406,112,144,130,169
54.512,14:38:9.512,-9.703125,-0.194336,0.070312,-0.001953,-0.313721,0.124512,0.,0.,0.,-2.719238,0.007812,0.027832,0.566406,112,144,130,169
54.612,14:38:9.612,-10.176758,-0.631836,-1.680664,0.014893,0.00415,-0.091309,0.,0.,0.,-2.714844,0.008301,0.,0.546875,103,144,125,192
54.712,14:38:9.712,-10.176758,-0.631836,-1.680664,0.014893,0.00415,-0.091309,0.,0.,0.,-2.714844,0.008301,0.,0.546875,103,144,125,192
54.812,14:38:9.812,-10.291992,0.489258,0.583984,0.027588,-0.039307,-0.014893,0.,0.,0.,-2.715576,0.008057,-0.000977,0.546875,101,143,124,191
54.912,14:38:9.912,-10.291992,0.489258,0.583984,0.027588,-0.039307,-0.014893,0.,0.,0.,-2.715576,0.008057,-0.000977,0.546875,101,143,124,191
55.012,14:38:10.012,-9.650391,0.456055,2.350586,0.,0.013672,0.056396,0.,0.,0.,-2.715332,0.006836,0.,0.546875,99,143,123,191
55.112,14:38:10.112,-9.650391,0.456055,2.350586,0.,0.013672,0.056396,0.,0.,0.,-2.715332,0.006836,0.,0.546875,99,143,123,191
55.212,14:38:10.212,-10.219727,-0.066406,-0.479492,-0.008301,0.137207,-0.684082,0.,0.,0.,-2.717041,-0.024414,-0.000488,0.542969,98,144,123,188
55.312,14:38:10.312,-10.219727,-0.066406,-0.479492,-0.008301,0.137207,-0.684082,0.,0.,0.,-2.717041,-0.024414,-0.000488,0.542969,98,144,123,188
55.412,14:38:10.412,-10.09082,0.964844,-2.070312,0.039307,0.067871,-0.038086,0.,0.,0.,-2.717041,-0.066406,0.019531,0.558594,95,142,123,225
55.512,14:38:10.512,-10.09082,0.964844,-2.070312,0.039307,0.067871,-0.038086,0.,0.,0.,-2.717041,-0.066406,0.019531,0.558594,95,142,123,225
55.612,14:38:10.612,-9.678711,0.151367,0.28418,0.010498,0.032959,0.448975,0.,0.,0.,-2.71582,-0.05542,0.023193,0.5625,96,141,123,195
55.712,14:38:10.712,-9.678711,0.151367,0.28418,0.010498,0.032959,0.448975,0.,0.,0.,-2.71582,-0.05542,0.023193,0.5625,96,141,123,195
55.812,14:38:10.812,-9.726562,-0.422852,-1.139648,-0.028564,-0.055176,0.089355,0.,0.,0.,-2.714844,-0.00415,0.021484,0.554688,98,141,124,181
55.912,14:38:10.912,-9.726562,-0.422852,-1.139648,-0.028564,-0.055176,0.089355,0.,0.,0.,-2.714844,-0.00415,0.021484,0.554688,98,141,124,181
56.012,14:38:11.012,-10.358398,-0.422852,0.839844,0.014893,0.11377,0.077637,0.,0.,0.,-2.708984,0.014648,0.049805,0.535156,103,143,142,178
56.112,14:38:11.112,-10.239258,0.907227,1.391602,0.054199,0.426514,-0.011475,0.,0.,0.,-2.704102,0.01123,0.066406,0.527344,107,145,139,214
56.212,14:38:11.212,-9.917969,0.550781,0.697266,0.026367,0.074463,0.013672,0.,0.,0.,-2.691162,0.012695,0.119141,0.535156,137,145,139,171
56.312,14:38:11.312,-9.927734,0.318359,-0.958984,0.006348,0.252197,-0.010498,0.,0.,0.,-2.687744,0.012939,0.143555,0.539062,140,146,137,171
56.412,14:38:11.412,-9.927734,0.318359,-0.958984,0.006348,0.252197,-0.010498,0.,0.,0.,-2.687744,0.012939,0.143555,0.539062,140,146,137,171
56.512,14:38:11.512,-10.095703,0.099609,-1.182617,0.040283,0.065918,-0.044678,0.,0.,0.,-2.684082,0.012695,0.155029,0.542969,131,152,137,171
56.612,14:38:11.612,-10.095703,0.099609,-1.182617,0.040283,0.065918,-0.044678,0.,0.,0.,-2.684082,0.012695,0.155029,0.542969,131,152,137,171
56.712,14:38:11.712,-9.19043,0.631836,0.250977,0.033936,-0.166016,-0.033936,0.,0.,0.,-2.679688,0.012939,0.154297,0.542969,130,156,142,168
56.812,14:38:11.812,-9.19043,0.631836,0.250977,0.033936,-0.166016,-0.033936,0.,0.,0.,-2.679688,0.012939,0.154297,0.542969,130,156,142,168
56.912,14:38:11.912,-10.085938,0.479492,0.426758,0.051025,-0.069092,-0.034912,0.,0.,0.,-2.674805,0.012207,0.130615,0.542969,133,156,146,166
57.012,14:38:12.012,-10.085938,0.479492,0.426758,0.051025,-0.069092,-0.034912,0.,0.,0.,-2.674805,0.012207,0.130615,0.542969,133,156,146,166
57.112,14:38:12.112,-9.109375,-0.313477,1.695312,0.024414,-0.137207,-0.080811,0.,0.,0.,-2.670654,0.011963,0.119141,0.550781,135,156,146,165
57.212,14:38:12.212,-9.78418,-0.161133,-0.50293,0.043457,-0.039307,-0.02124,0.,0.,0.,-2.666992,0.010254,0.107422,0.554688,135,154,147,165
57.312,14:38:12.312,-9.449219,-0.665039,-0.141602,0.028564,-0.029785,-0.009521,0.,0.,0.,-2.651855,0.008057,0.09668,0.5625,143,165,152,168
57.412,14:38:12.412,-9.798828,0.061523,0.635742,0.032959,-0.001953,0.011475,0.,0.,0.,-2.634277,0.002686,0.038086,0.554688,117,136,139,169
57.512,14:38:12.512,-9.688477,0.213867,-0.212891,0.003174,-0.084961,-0.052979,0.,0.,0.,-2.631592,0.003906,0.03418,0.554688,115,135,136,174
57.612,14:38:12.612,-10.430664,0.189453,-0.726562,0.022217,0.026367,-0.003174,0.,0.,0.,-2.631104,0.003418,0.029541,0.550781,112,133,135,176
57.712,14:38:12.712,-10.430664,0.189453,-0.726562,0.022217,0.026367,-0.003174,0.,0.,0.,-2.631104,0.003418,0.029541,0.550781,112,133,135,176
57.812,14:38:12.812,-9.755859,0.503906,-0.013672,0.010498,-0.019043,0.046631,0.,0.,0.,-2.631104,0.003906,0.031006,0.546875,110,132,134,179
57.912,14:38:12.912,-9.755859,0.503906,-0.013672,0.010498,-0.019043,0.046631,0.,0.,0.,-2.631104,0.003906,0.031006,0.546875,110,132,134,179
58.012,14:38:13.012,-9.90918,-0.646484,-1.182617,-0.024414,0.052002,-0.05835,0.,0.,0.,-2.63208,0.004395,0.037109,0.550781,105,132,118,168
58.112,14:38:13.112,-9.90918,-0.646484,-1.182617,-0.024414,0.052002,-0.05835,0.,0.,0.,-2.63208,0.004395,0.037109,0.550781,105,132,118,168
58.212,14:38:13.212,-9.602539,-0.151367,-1.395508,-0.018066,0.019043,-0.07959,0.,0.,0.,-2.631348,0.00415,0.043945,0.5625,100,132,114,170
58.312,14:38:13.312,-9.602539,-0.151367,-1.395508,-0.018066,0.019043,-0.07959,0.,0.,0.,-2.631348,0.00415,0.043945,0.5625,100,132,114,170
58.412,14:38:13.412,-9.789062,-0.72168,0.902344,0.011475,-0.397949,-0.302002,0.,0.,0.,-2.63208,-0.010498,0.016113,0.566406,98,132,114,173
58.512,14:38:13.512,-9.789062,-0.72168,0.902344,0.011475,-0.397949,-0.302002,0.,0.,0.,-2.63208,-0.010498,0.016113,0.566406,98,132,114,173
58.612,14:38:13.612,-9.789062,-0.72168,0.902344,0.011475,-0.397949,-0.302002,0.,0.,0.,-2.63208,-0.010498,0.016113,0.566406,98,132,114,173
58.712,14:38:13.712,-10.349609,1.016602,-0.754883,0.014893,0.016846,0.043457,0.,0.,0.,-2.630371,-0.010986,-0.00708,0.570312,93,128,105,183
58.812,14:38:13.812,-10.282227,0.708008,0.056641,0.045654,0.048828,-0.345703,0.,0.,0.,-2.630127,-0.013672,-0.003418,0.570312,94,128,106,179
58.912,14:38:13.912,-10.244141,0.527344,1.80957,-0.008301,0.080811,-0.102051,0.,0.,0.,-2.628906,-0.034912,-0.001953,0.570312,96,131,106,179
59.012,14:38:14.012,-9.683594,0.588867,-1.571289,0.005127,-0.006348,-0.143555,0.,0.,0.,-2.621826,-0.011963,0.032715,0.585938,92,133,105,178
59.112,14:38:14.112,-9.176758,0.071289,-1.272461,0.039307,0.223389,0.05835,0.,0.,0.,-2.605225,0.007324,0.054932,0.578125,105,134,115,185
59.212,14:38:14.212,-10.31543,0.479492,-2.103516,0.02002,-0.027588,-0.030762,0.,0.,0.,-2.585938,0.038818,0.134277,0.554688,124,153,143,164
59.312,14:38:14.312,-9.736328,-0.318359,0.488281,0.044678,0.067871,1.16626,0.,0.,0.,-2.553955,-0.102539,0.112305,0.613281,168,162,141,150
59.412,14:38:14.412,-10.68457,-0.398438,0.844727,0.011475,0.005127,0.188232,0.,0.,0.,-2.548828,0.036621,0.108643,0.605469,164,165,140,147
59.512,14:38:14.512,-10.68457,-0.398438,0.844727,0.011475,0.005127,0.188232,0.,0.,0.,-2.548828,0.036621,0.108643,0.605469,164,165,140,147
59.612,14:38:14.612,-9.511719,-0.902344,-0.041992,0.012695,-0.0979,-0.17749,0.,0.,0.,-2.541016,0.080322,0.10791,0.582031,160,165,139,145
59.712,14:38:14.712,-9.511719,-0.902344,-0.041992,0.012695,-0.0979,-0.17749,0.,0.,0.,-2.541016,0.080322,0.10791,0.582031,160,165,139,145
59.812,14:38:14.812,-9.741211,0.275391,0.788086,0.070068,0.104248,0.161621,0.,0.,0.,-2.534912,0.053955,0.106934,0.566406,159,166,137,140
59.912,14:38:14.912,-9.741211,0.275391,0.788086,0.070068,0.104248,0.161621,0.,0.,0.,-2.534912,0.053955,0.106934,0.566406,159,166,137,140
60.012,14:38:15.012,-9.741211,0.275391,0.788086,0.070068,0.104248,0.161621,0.,0.,0.,-2.534912,0.053955,0.106934,0.566406,159,166,137,140
60.112,14:38:15.112,-9.625977,-0.802734,-1.206055,0.039307,-0.658691,0.024414,0.,0.,0.,-2.509033,0.004395,0.058105,0.59375,161,168,130,129
60.212,14:38:15.212,-9.625977,-0.802734,-1.206055,0.039307,-0.658691,0.024414,0.,0.,0.,-2.509033,0.004395,0.058105,0.59375,161,168,130,129
60.312,14:38:15.312,-9.703125,-0.285156,-0.421875,0.045654,-0.17334,-0.075439,0.,0.,0.,-2.503662,0.002441,0.036133,0.609375,151,168,125,127
60.412,14:38:15.412,-8.908203,-0.161133,-1.310547,0.072266,0.09668,-0.048828,0.,0.,0.,-2.498047,0.000244,0.025635,0.621094,130,169,122,127
60.512,14:38:15.512,-9.224609,0.242188,0.716797,0.072266,0.070068,0.029785,0.,0.,0.,-2.49292,0.000244,0.026367,0.621094,118,171,110,130
60.612,14:38:15.612,-9.200195,1.03125,1.149414,0.098877,-0.060547,-0.502197,0.,0.,0.,-2.488037,-0.015137,0.03125,0.617188,111,174,103,131
60.712,14:38:15.712,-9.554688,0.360352,-0.464844,0.063721,0.026367,-0.11792,0.,0.,0.,-2.484619,-0.050781,0.031006,0.613281,133,176,99,133
60.812,14:38:15.812,-10.009766,0.384766,2.018555,0.022217,0.109375,-1.007568,0.,0.,0.,-2.484863,-0.095459,0.032471,0.609375,167,177,97,132
60.912,14:38:15.912,-10.009766,0.384766,2.018555,0.022217,0.109375,-1.007568,0.,0.,0.,-2.484863,-0.095459,0.032471,0.609375,167,177,97,132
61.012,14:38:16.012,-9.741211,0.674805,0.232422,-0.007324,-0.019043,-0.236084,0.,0.,0.,-2.484131,-0.139404,0.031494,0.597656,163,178,92,132
61.112,14:38:16.112,-9.741211,0.674805,0.232422,-0.007324,-0.019043,-0.236084,0.,0.,0.,-2.484131,-0.139404,0.031494,0.597656,163,178,92,132
61.212,14:38:16.212,-9.851562,-0.041992,0.707031,-0.030762,0.005127,0.238281,0.,0.,0.,-2.484375,-0.150635,0.030518,0.605469,157,178,90,133
61.312,14:38:16.312,-9.851562,-0.041992,0.707031,-0.030762,0.005127,0.238281,0.,0.,0.,-2.484375,-0.150635,0.030518,0.605469,157,178,90,133
61.412,14:38:16.412,-9.851562,-0.041992,0.707031,-0.030762,0.005127,0.238281,0.,0.,0.,-2.484375,-0.150635,0.030518,0.605469,157,178,90,133
61.512,14:38:16.512,-9.914062,0.617188,0.146484,-0.023193,0.185059,0.256348,0.,0.,0.,-2.508057,0.120117,0.10791,0.539062,139,199,145,156
61.612,14:38:16.612,-9.914062,0.617188,0.146484,-0.023193,0.185059,0.256348,0.,0.,0.,-2.508057,0.120117,0.10791,0.539062,139,199,145,156
61.712,14:38:16.712,-10.258789,0.427734,0.250977,0.034912,0.052002,-0.269043,0.,0.,0.,-2.509033,0.132568,0.115723,0.535156,131,229,153,157
61.812,14:38:16.812,-10.258789,0.427734,0.250977,0.034912,0.052002,-0.269043,0.,0.,0.,-2.509033,0.132568,0.115723,0.535156,131,229,153,157
61.912,14:38:16.912,-9.947266,0.646484,-0.008789,0.029785,-0.101074,-0.166016,0.,0.,0.,-2.51001,0.126709,0.11377,0.539062,131,223,159,159
62.012,14:38:17.012,-9.272461,-0.023438,-1.040039,0.032959,-0.069092,-0.244629,0.,0.,0.,-2.510254,0.115234,0.108398,0.542969,132,172,158,157
62.112,14:38:17.112,-9.272461,-0.023438,-1.040039,0.032959,-0.069092,-0.244629,0.,0.,0.,-2.510254,0.115234,0.108398,0.542969,132,172,158,157
62.212,14:38:17.212,-9.678711,0.499023,-0.94043,-0.010498,-0.369141,-0.065918,0.,0.,0.,-2.513672,0.012939,0.046631,0.578125,134,163,157,155
62.312,14:38:17.312,-9.678711,0.499023,-0.94043,-0.010498,-0.369141,-0.065918,0.,0.,0.,-2.513672,0.012939,0.046631,0.578125,134,163,157,155
62.412,14:38:17.412,-9.678711,0.499023,-0.94043,-0.010498,-0.369141,-0.065918,0.,0.,0.,-2.513672,0.012939,0.046631,0.578125,134,163,157,155
62.512,14:38:17.512,-10.473633,0.260742,-0.87793,0.094482,0.025391,-0.04248,0.,0.,0.,-2.505615,-0.001465,0.026367,0.59375,140,184,152,150
62.612,14:38:17.612,-9.353516,0.603516,-0.87793,0.074463,0.038086,-0.04248,0.,0.,0.,-2.502197,-0.003174,0.0271,0.589844,142,206,149,146
62.712,14:38:17.712,-9.353516,0.603516,-0.87793,0.074463,0.038086,-0.04248,0.,0.,0.,-2.502197,-0.003174,0.0271,0.589844,142,206,149,146
62.812,14:38:17.812,-10.823242,-0.318359,-1.068359,0.052002,0.048828,-0.462891,0.,0.,0.,-2.498535,-0.03418,0.02832,0.585938,144,240,159,141
62.912,14:38:17.912,-10.823242,-0.318359,-1.068359,0.052002,0.048828,-0.462891,0.,0.,0.,-2.498535,-0.03418,0.02832,0.585938,144,240,159,141
63.012,14:38:18.012,-10.124023,-0.232422,1.410156,-0.010498,0.043457,-0.420166,0.,0.,0.,-2.479004,-0.088867,0.047119,0.5625,166,206,134,107
63.112,14:38:18.112,-9.243164,0.033203,0.013672,-0.054199,0.369141,1.794189,0.,0.,0.,-2.476807,-0.009033,0.07251,0.582031,169,208,143,104
63.212,14:38:18.212,-9.535156,-0.527344,0.34668,-0.014893,0.238281,0.585205,0.,0.,0.,-2.476807,0.047852,0.084229,0.578125,183,208,157,103
63.312,14:38:18.312,-10.842773,-0.189453,-0.930664,-0.041504,0.09668,-0.197754,0.,0.,0.,-2.469971,0.056885,0.132812,0.53125,230,211,158,102
63.412,14:38:18.412,-9.549805,-0.726562,0.436523,0.029785,0.052979,-0.081787,0.,0.,0.,-2.467285,0.040283,0.144287,0.542969,233,214,120,96
63.512,14:38:18.512,-9.549805,-0.726562,0.436523,0.029785,0.052979,-0.081787,0.,0.,0.,-2.467285,0.040283,0.144287,0.542969,233,214,120,96
63.612,14:38:18.612,-9.49707,0.570312,1.600586,0.052979,0.098877,0.000977,0.,0.,0.,-2.464355,0.025146,0.130859,0.550781,212,221,96,91
63.712,14:38:18.712,-9.49707,0.570312,1.600586,0.052979,0.098877,0.000977,0.,0.,0.,-2.464355,0.025146,0.130859,0.550781,212,221,96,91
63.812,14:38:18.812,-10.334961,-0.479492,0.217773,0.057373,0.401123,-1.298096,0.,0.,0.,-2.462402,-0.015625,0.140381,0.558594,205,226,93,82
63.912,14:38:18.912,-10.334961,-0.479492,0.217773,0.057373,0.401123,-1.298096,0.,0.,0.,-2.462402,-0.015625,0.140381,0.558594,205,226,93,82
64.012,14:38:19.012,-10.138672,-0.398438,-0.40332,-0.005127,0.458496,0.176514,0.,0.,0.,-2.461182,-0.112793,0.192627,0.585938,209,220,92,75
64.112,14:38:19.112,-10.138672,-0.398438,-0.40332,-0.005127,0.458496,0.176514,0.,0.,0.,-2.461182,-0.112793,0.192627,0.585938,209,220,92,75
64.212,14:38:19.212,-9.96582,0.456055,0.892578,-0.023193,0.045654,-0.11792,0.,0.,0.,-2.459717,-0.097656,0.206299,0.585938,214,218,93,73
64.312,14:38:19.312,-9.592773,-0.137695,-1.358398,-0.062744,-0.638428,0.667236,0.,0.,0.,-2.458252,-0.050537,0.184326,0.585938,216,218,94,73
64.412,14:38:19.412,-9.549805,0.308594,-0.526367,-0.024414,-0.008301,0.243652,0.,0.,0.,-2.456787,-0.021484,0.158203,0.582031,216,125,96,74
64.512,14:38:19.512,-9.549805,0.308594,-0.526367,-0.024414,-0.008301,0.243652,0.,0.,0.,-2.456787,-0.021484,0.158203,0.582031,216,125,96,74
64.612,14:38:19.612,-9.712891,0.417969,-0.902344,-0.071289,-0.365967,0.012695,0.,0.,0.,-2.455566,-0.005859,0.136719,0.574219,214,63,97,77
64.712,14:38:19.712,-9.712891,0.417969,-0.902344,-0.071289,-0.365967,0.012695,0.,0.,0.,-2.455566,-0.005859,0.136719,0.574219,214,63,97,77
64.812,14:38:19.812,-9.587891,-0.850586,1.053711,0.011475,-0.217041,-0.186035,0.,0.,0.,-2.460938,0.075928,-0.004395,0.546875,219,217,123,104
64.912,14:38:19.912,-9.587891,-0.850586,1.053711,0.011475,-0.217041,-0.186035,0.,0.,0.,-2.460938,0.075928,-0.004395,0.546875,219,217,123,104
65.012,14:38:20.012,-8.515625,0.555664,0.597656,0.027588,-0.011475,-0.009521,0.,0.,0.,-2.460938,0.064209,-0.013428,0.550781,184,215,140,107
65.112,14:38:20.112,-8.109375,0.151367,-1.647461,0.047852,-0.115967,-0.376709,0.,0.,0.,-2.462891,0.044434,-0.023682,0.554688,182,216,191,112
65.212,14:38:20.212,-8.109375,0.151367,-1.647461,0.047852,-0.115967,-0.376709,0.,0.,0.,-2.462891,0.044434,-0.023682,0.554688,182,216,191,112
65.312,14:38:20.312,-13.183594,0.479492,0.678711,0.039307,0.054199,-0.086182,0.,0.,0.,-2.463379,0.004883,0.,0.289062,177,214,150,121
65.412,14:38:20.412,-13.183594,0.479492,0.678711,0.039307,0.054199,-0.086182,0.,0.,0.,-2.463379,0.004883,0.,0.289062,177,214,150,121
65.512,14:38:20.512,-9.439453,-3.688477,-14.572266,0.574463,-0.285156,0.830078,0.,0.,0.,-2.466309,-0.005859,0.029053,0.289062,177,223,151,127
65.612,14:38:20.612,-9.439453,-3.688477,-14.572266,0.574463,-0.285156,0.830078,0.,0.,0.,-2.466309,-0.005859,0.029053,0.289062,177,223,151,127
65.712,14:38:20.712,-10.018555,1.026367,-1.291016,0.099854,0.902344,-0.30957,0.,0.,0.,-2.463135,0.006836,0.004639,0.289062,177,230,153,124
65.812,14:38:20.812,-10.018555,1.026367,-1.291016,0.099854,0.902344,-0.30957,0.,0.,0.,-2.463135,0.006836,0.004639,0.289062,177,230,153,124
65.912,14:38:20.912,-7.123047,-0.056641,0.013672,0.048828,-0.279785,0.120117,0.,0.,0.,-2.460938,0.006836,-0.00415,0.289062,203,227,157,120
66.012,14:38:21.012,-7.123047,-0.056641,0.013672,0.048828,-0.279785,0.120117,0.,0.,0.,-2.460938,0.006836,-0.00415,0.289062,203,227,157,120
66.112,14:38:21.112,-3.743164,0.18457,-0.313477,0.056396,0.110596,-0.018066,0.,0.,0.,-2.457275,0.008545,0.016113,0.289062,218,220,174,119
66.212,14:38:21.212,-21.479492,-6.293945,8.530273,-0.180908,0.395752,-1.619629,0.,0.,0.,-2.480957,-0.005371,0.039551,0.289062,231,221,173,117
66.312,14:38:21.312,-2.532227,-1.273438,-0.094727,0.060547,-0.397949,0.208496,0.,0.,0.,-2.479492,0.008545,0.014404,0.289062,241,209,171,118
66.412,14:38:21.412,-2.532227,-1.273438,-0.094727,0.060547,-0.397949,0.208496,0.,0.,0.,-2.479492,0.008545,0.014404,0.289062,241,209,171,118
66.512,14:38:21.512,-2.532227,-1.273438,-0.094727,0.060547,-0.397949,0.208496,0.,0.,0.,-2.479492,0.008545,0.014404,0.289062,241,209,171,118
66.612,14:38:21.612,-9.789062,0.051758,0.108398,-0.014893,0.016846,-0.026367,0.,0.,0.,-2.652344,-0.007812,0.069092,0.242188,187,205,149,154
66.712,14:38:21.712,-9.789062,0.051758,0.108398,-0.014893,0.016846,-0.026367,0.,0.,0.,-2.652344,-0.007812,0.069092,0.242188,187,205,149,154
66.812,14:38:21.812,-9.789062,0.051758,0.108398,-0.014893,0.016846,-0.026367,0.,0.,0.,-2.652344,-0.007812,0.069092,0.242188,187,205,149,154
66.912,14:38:21.912,-9.789062,0.051758,0.108398,-0.014893,0.016846,-0.026367,0.,0.,0.,-2.652344,-0.007812,0.069092,0.242188,187,205,149,154
67.012,14:38:22.012,-9.789062,0.051758,0.108398,-0.014893,0.016846,-0.026367,0.,0.,0.,-2.652344,-0.007812,0.069092,0.242188,187,205,149,154
67.112,14:38:22.112,-9.798828,0.061523,0.108398,-0.010498,0.015869,-0.024414,0.,0.,0.,2.96875,-0.007324,0.052734,0.242188,191,222,131,116
67.212,14:38:22.212,-9.798828,0.061523,0.108398,-0.010498,0.015869,-0.024414,0.,0.,0.,2.96875,-0.007324,0.052734,0.242188,191,222,131,116
67.312,14:38:22.312,-9.84668,0.046875,0.113281,-0.013672,0.013672,-0.029785,0.,0.,0.,2.96582,-0.007324,0.05249,0.242188,191,215,131,117
67.412,14:38:22.412,-9.84668,0.046875,0.113281,-0.013672,0.013672,-0.029785,0.,0.,0.,2.96582,-0.007324,0.05249,0.242188,191,215,131,117
67.512,14:38:22.512,-9.822266,0.094727,0.118164,-0.011475,0.013672,-0.025391,0.,0.,0.,2.965576,-0.007324,0.05249,0.242188,191,215,132,116
67.612,14:38:22.612,-9.822266,0.094727,0.118164,-0.011475,0.013672,-0.025391,0.,0.,0.,2.965576,-0.007324,0.05249,0.242188,191,215,132,116
67.712,14:38:22.712,-9.879883,0.094727,0.084961,-0.013672,0.013672,-0.029785,0.,0.,0.,2.965332,-0.007324,0.05249,0.242188,191,216,132,116
67.812,14:38:22.812,-9.879883,0.094727,0.084961,-0.013672,0.013672,-0.029785,0.,0.,0.,2.965332,-0.007324,0.05249,0.242188,191,216,132,116
67.912,14:38:22.912,-9.779297,0.056641,0.151367,-0.013672,0.018066,-0.028564,0.,0.,0.,2.9646,-0.007568,0.05249,0.242188,191,215,131,116
68.012,14:38:23.012,-9.741211,0.104492,0.12793,-0.013672,0.015869,-0.027588,0.,0.,0.,2.964111,-0.007568,0.05249,0.242188,191,215,131,116
68.112,14:38:23.112,-9.741211,0.037109,0.099609,-0.015869,0.011475,-0.027588,0.,0.,0.,2.964111,-0.007568,0.052246,0.242188,191,215,131,116
68.212,14:38:23.212,-9.861328,0.108398,0.084961,-0.013672,0.015869,-0.028564,0.,0.,0.,2.963867,-0.007568,0.052246,0.242188,191,215,131,116
68.312,14:38:23.312,-9.793945,0.041992,0.089844,-0.013672,0.015869,-0.028564,0.,0.,0.,2.963867,-0.007324,0.052246,0.242188,191,216,131,116
68.412,14:38:23.412,-9.793945,-0.02832,0.108398,-0.015869,0.014893,-0.026367,0.,0.,0.,2.963623,-0.007324,0.052246,0.242188,191,216,132,115
68.512,14:38:23.512,-9.798828,0.061523,0.075195,-0.012695,0.013672,-0.024414,0.,0.,0.,2.963379,-0.007324,0.052246,0.242188,191,215,132,115
68.612,14:38:23.612,-9.798828,0.194336,0.056641,-0.012695,0.011475,-0.027588,0.,0.,0.,2.963379,-0.007324,0.052246,0.242188,191,215,131,115
68.712,14:38:23.712,-9.798828,0.194336,0.056641,-0.012695,0.011475,-0.027588,0.,0.,0.,2.963379,-0.007324,0.052246,0.242188,191,215,131,115
68.812,14:38:23.812,-9.914062,0.051758,0.137695,-0.014893,0.011475,-0.026367,0.,0.,0.,2.963379,-0.007324,0.052246,0.242188,191,215,131,115
68.912,14:38:23.912,-9.914062,0.051758,0.137695,-0.014893,0.011475,-0.026367,0.,0.,0.,2.963379,-0.007324,0.052246,0.242188,191,215,131,115
69.012,14:38:24.012,-9.884766,0.033203,0.137695,-0.013672,0.011475,-0.025391,0.,0.,0.,2.963135,-0.007324,0.052246,0.242188,191,215,131,115
69.112,14:38:24.112,-9.884766,0.033203,0.137695,-0.013672,0.011475,-0.025391,0.,0.,0.,2.963135,-0.007324,0.052246,0.242188,191,215,131,115
69.212,14:38:24.212,-9.760742,0.056641,0.118164,-0.014893,0.015869,-0.027588,0.,0.,0.,2.963135,-0.007324,0.052246,0.242188,191,214,131,115
69.312,14:38:24.312,-9.90918,0.056641,0.089844,-0.012695,0.016846,-0.027588,0.,0.,0.,2.963135,-0.007324,0.052002,0.242188,191,214,131,114
69.412,14:38:24.412,-9.875,0.061523,0.151367,-0.012695,0.014893,-0.028564,0.,0.,0.,2.962891,-0.007324,0.052002,0.242188,191,213,131,114
69.512,14:38:24.512,-9.808594,0.061523,0.132812,-0.011475,0.015869,-0.024414,0.,0.,0.,2.962891,-0.007324,0.052002,0.242188,191,213,131,114
69.612,14:38:24.612,-9.899414,0.051758,0.151367,-0.013672,0.012695,-0.026367,0.,0.,0.,2.962891,-0.007568,0.052002,0.242188,190,213,131,115
69.712,14:38:24.712,-9.841797,0.080078,0.161133,-0.013672,0.012695,-0.025391,0.,0.,0.,2.962646,-0.007568,0.052002,0.242188,190,213,131,114
69.812,14:38:24.812,-9.841797,0.080078,0.161133,-0.013672,0.012695,-0.025391,0.,0.,0.,2.962646,-0.007568,0.052002,0.242188,190,213,131,114
69.912,14:38:24.912,-9.818359,0.075195,0.141602,-0.012695,0.015869,-0.027588,0.,0.,0.,2.962646,-0.007568,0.052002,0.242188,191,215,131,114
70.012,14:38:25.012,-9.818359,0.075195,0.141602,-0.012695,0.015869,-0.027588,0.,0.,0.,2.962646,-0.007568,0.052002,0.242188,191,215,131,114
70.112,14:38:25.112,-9.808594,0.061523,0.089844,-0.013672,0.018066,-0.027588,0.,0.,0.,2.962402,-0.007568,0.052002,0.242188,191,215,131,114
70.212,14:38:25.212,-9.808594,0.061523,0.089844,-0.013672,0.018066,-0.027588,0.,0.,0.,2.962402,-0.007568,0.052002,0.242188,191,215,131,114
70.312,14:38:25.312,-9.851562,0.089844,0.146484,-0.013672,0.013672,-0.024414,0.,0.,0.,2.962402,-0.007568,0.052002,0.242188,191,215,131,114
70.412,14:38:25.412,-9.851562,0.089844,0.146484,-0.013672,0.013672,-0.024414,0.,0.,0.,2.962402,-0.007568,0.052002,0.242188,191,215,131,114
70.512,14:38:25.512,-9.827148,0.099609,0.137695,-0.014893,0.012695,-0.027588,0.,0.,0.,2.962402,-0.007568,0.051758,0.242188,189,215,131,115
70.612,14:38:25.612,-9.827148,0.099609,0.137695,-0.014893,0.012695,-0.027588,0.,0.,0.,2.962402,-0.007568,0.051758,0.242188,189,215,131,115
70.712,14:38:25.712,-9.827148,0.099609,0.137695,-0.014893,0.012695,-0.027588,0.,0.,0.,2.962402,-0.007568,0.051758,0.242188,189,215,131,115
70.812,14:38:25.812,-9.827148,0.099609,0.137695,-0.014893,0.012695,-0.027588,0.,0.,0.,2.962402,-0.007568,0.051758,0.242188,189,215,131,115
70.912,14:38:25.912,-9.827148,0.099609,0.137695,-0.014893,0.012695,-0.027588,0.,0.,0.,2.962402,-0.007568,0.051758,0.242188,189,215,131,115
71.012,14:38:26.012,-9.879883,0.02832,0.033203,-0.011475,0.014893,-0.028564,0.,0.,0.,2.960693,-0.007568,0.051025,0.242188,191,214,131,116
71.112,14:38:26.112,-9.879883,0.02832,0.033203,-0.011475,0.014893,-0.028564,0.,0.,0.,2.960693,-0.007568,0.051025,0.242188,191,214,131,116
71.212,14:38:26.212,-9.827148,0.008789,0.089844,-0.012695,0.010498,-0.027588,0.,0.,0.,2.960693,-0.007568,0.051025,0.242188,191,214,132,115
71.312,14:38:26.312,-9.827148,0.008789,0.089844,-0.012695,0.010498,-0.027588,0.,0.,0.,2.960693,-0.007568,0.051025,0.242188,191,214,132,115
71.412,14:38:26.412,-9.765625,0.013672,0.02832,-0.013672,0.013672,-0.028564,0.,0.,0.,2.960693,-0.007568,0.051025,0.242188,191,214,132,115
71.512,14:38:26.512,-9.765625,0.013672,0.02832,-0.013672,0.013672,-0.028564,0.,0.,0.,2.960693,-0.007568,0.051025,0.242188,191,214,132,115
71.612,14:38:26.612,-9.808594,-0.008789,0.118164,-0.010498,0.015869,-0.026367,0.,0.,0.,2.960693,-0.007568,0.051025,0.242188,191,214,132,115
71.712,14:38:26.712,-9.808594,-0.008789,0.118164,-0.010498,0.015869,-0.026367,0.,0.,0.,2.960693,-0.007568,0.051025,0.242188,191,214,132,115
71.812,14:38:26.812,-9.894531,0.179688,0.113281,-0.011475,0.013672,-0.028564,0.,0.,0.,2.960449,-0.007568,0.051025,0.242188,191,215,132,115
71.912,14:38:26.912,-9.894531,0.179688,0.113281,-0.011475,0.013672,-0.028564,0.,0.,0.,2.960449,-0.007568,0.051025,0.242188,191,215,132,115
72.012,14:38:27.012,-9.917969,0.142578,0.108398,-0.013672,0.013672,-0.029785,0.,0.,0.,2.973389,-0.007324,0.049805,0.242188,190,213,134,112
72.112,14:38:27.112,-9.917969,0.142578,0.108398,-0.013672,0.013672,-0.029785,0.,0.,0.,2.973389,-0.007324,0.049805,0.242188,190,213,134,112
72.212,14:38:27.212,-9.899414,0.080078,0.141602,-0.012695,0.013672,-0.027588,0.,0.,0.,2.973633,-0.007324,0.049805,0.242188,191,213,134,113
72.312,14:38:27.312,-9.899414,0.080078,0.141602,-0.012695,0.013672,-0.027588,0.,0.,0.,2.973633,-0.007324,0.049805,0.242188,191,213,134,113
72.412,14:38:27.412,-9.851562,0.099609,0.113281,-0.012695,0.012695,-0.024414,0.,0.,0.,2.973877,-0.007324,0.049805,0.242188,191,213,134,116
72.512,14:38:27.512,-9.851562,0.099609,0.113281,-0.012695,0.012695,-0.024414,0.,0.,0.,2.973877,-0.007324,0.049805,0.242188,191,213,134,116
72.612,14:38:27.612,-9.947266,0.018555,0.051758,-0.012695,0.012695,-0.025391,0.,0.,0.,3.014893,-0.007812,0.049805,0.242188,223,215,132,111
72.712,14:38:27.712,-9.741211,0.113281,0.18457,-0.009521,0.014893,-0.026367,0.,0.,0.,3.015137,-0.007812,0.049805,0.242188,223,215,132,111
72.812,14:38:27.812,-9.741211,0.113281,0.18457,-0.009521,0.014893,-0.026367,0.,0.,0.,3.015137,-0.007812,0.049805,0.242188,223,215,132,111
72.912,14:38:27.912,-9.741211,0.113281,0.18457,-0.009521,0.014893,-0.026367,0.,0.,0.,3.015137,-0.007812,0.049805,0.242188,223,215,132,111
73.012,14:38:28.012,-9.741211,0.113281,0.18457,-0.009521,0.014893,-0.026367,0.,0.,0.,3.015137,-0.007812,0.049805,0.242188,223,215,132,111
73.112,14:38:28.112,-9.813477,0.084961,0.113281,-0.014893,0.014893,-0.030762,0.,0.,0.,3.017334,-0.007812,0.049805,0.242188,191,213,132,111
73.212,14:38:28.212,-9.813477,0.084961,0.113281,-0.014893,0.014893,-0.030762,0.,0.,0.,3.017334,-0.007812,0.049805,0.242188,191,213,132,111
73.312,14:38:28.312,-9.832031,0.080078,0.132812,-0.011475,0.018066,-0.027588,0.,0.,0.,3.019043,-0.007568,0.049805,0.242188,191,213,133,111
73.412,14:38:28.412,-9.774414,0.108398,0.137695,-0.013672,0.014893,-0.028564,0.,0.,0.,3.019531,-0.007568,0.049805,0.242188,198,214,132,111
73.512,14:38:28.512,-9.774414,0.108398,0.137695,-0.013672,0.014893,-0.028564,0.,0.,0.,3.019531,-0.007568,0.049805,0.242188,198,214,132,111
73.612,14:38:28.612,-9.774414,0.108398,0.137695,-0.013672,0.014893,-0.028564,0.,0.,0.,3.019531,-0.007568,0.049805,0.242188,198,214,132,111
73.712,14:38:28.712,-9.870117,0.142578,0.094727,-0.014893,0.015869,-0.023193,0.,0.,0.,3.022461,-0.007812,0.050049,0.242188,190,213,132,111
73.812,14:38:28.812,-9.856445,0.041992,0.056641,-0.013672,0.012695,-0.027588,0.,0.,0.,3.023682,-0.007812,0.050049,0.242188,223,213,132,111
73.912,14:38:28.912,-9.856445,0.041992,0.056641,-0.013672,0.012695,-0.027588,0.,0.,0.,3.023682,-0.007812,0.050049,0.242188,223,213,132,111
74.012,14:38:29.012,-9.827148,0.084961,0.094727,-0.013672,0.012695,-0.026367,0.,0.,0.,3.084473,-0.007812,0.050537,0.242188,221,214,135,110
74.112,14:38:29.112,-9.827148,0.084961,0.094727,-0.013672,0.012695,-0.026367,0.,0.,0.,3.084473,-0.007812,0.050537,0.242188,221,214,135,110
74.212,14:38:29.212,-9.879883,0.099609,0.123047,-0.014893,0.010498,-0.030762,0.,0.,0.,3.084473,-0.007812,0.050537,0.242188,221,214,134,110
74.312,14:38:29.312,-9.879883,0.099609,0.123047,-0.014893,0.010498,-0.030762,0.,0.,0.,3.084473,-0.007812,0.050537,0.242188,221,214,134,110
74.412,14:38:29.412,-9.866211,0.084961,0.137695,-0.012695,0.013672,-0.027588,0.,0.,0.,3.084473,-0.007812,0.050537,0.242188,221,214,134,110
74.512,14:38:29.512,-9.866211,0.084961,0.137695,-0.012695,0.013672,-0.027588,0.,0.,0.,3.084473,-0.007812,0.050537,0.242188,221,214,134,110
74.612,14:38:29.612,-9.755859,0.089844,0.12793,-0.012695,0.010498,-0.025391,0.,0.,0.,3.084473,-0.007812,0.050537,0.242188,220,215,134,110
74.712,14:38:29.712,-9.755859,0.089844,0.12793,-0.012695,0.010498,-0.025391,0.,0.,0.,3.084473,-0.007812,0.050537,0.242188,220,215,134,110
74.812,14:38:29.812,-9.836914,0.104492,0.141602,-0.012695,0.016846,-0.028564,0.,0.,0.,3.084473,-0.007812,0.050781,0.242188,220,215,135,110
74.912,14:38:29.912,-9.889648,0.037109,0.146484,-0.011475,0.009521,-0.023193,0.,0.,0.,3.084473,-0.007812,0.050537,0.242188,220,215,134,110
75.012,14:38:30.012,-9.899414,0.066406,0.118164,-0.012695,0.013672,-0.025391,0.,0.,0.,3.084473,-0.007812,0.050537,0.242188,221,215,134,110
75.112,14:38:30.112,-9.836914,0.104492,0.161133,-0.015869,0.016846,-0.028564,0.,0.,0.,3.084473,-0.007812,0.050537,0.242188,221,215,134,110
75.212,14:38:30.212,-9.84668,0.061523,0.189453,-0.012695,0.012695,-0.026367,0.,0.,0.,3.084473,-0.007812,0.050537,0.242188,221,215,134,110
75.312,14:38:30.312,-9.808594,0.066406,0.080078,-0.012695,0.011475,-0.023193,0.,0.,0.,3.084473,-0.007812,0.050781,0.242188,221,215,134,110
75.412,14:38:30.412,-9.808594,0.066406,0.080078,-0.012695,0.011475,-0.023193,0.,0.,0.,3.084473,-0.007812,0.050781,0.242188,221,215,134,110
75.512,14:38:30.512,-9.861328,0.104492,0.041992,-0.012695,0.011475,-0.025391,0.,0.,0.,3.084473,-0.007812,0.050781,0.242188,221,215,134,110
75.612,14:38:30.612,-9.861328,0.104492,0.041992,-0.012695,0.011475,-0.025391,0.,0.,0.,3.084473,-0.007812,0.050781,0.242188,221,215,134,110
75.712,14:38:30.712,-9.866211,0.104492,0.061523,-0.013672,0.011475,-0.026367,0.,0.,0.,3.084229,-0.007812,0.050781,0.242188,221,215,134,110
75.812,14:38:30.812,-9.803711,0.118164,0.089844,-0.011475,0.008301,-0.026367,0.,0.,0.,3.084229,-0.007812,0.050537,0.242188,220,216,134,110
75.912,14:38:30.912,-9.875,0.056641,0.118164,-0.012695,0.009521,-0.027588,0.,0.,0.,3.084229,-0.007812,0.050537,0.242188,220,216,134,110
76.012,14:38:31.012,-9.894531,0.084961,0.12793,-0.013672,0.011475,-0.026367,0.,0.,0.,3.084229,-0.007812,0.050781,0.242188,220,216,134,110
76.112,14:38:31.112,-9.765625,0.041992,0.174805,-0.013672,0.010498,-0.029785,0.,0.,0.,3.084229,-0.007812,0.050781,0.242188,220,216,135,110
76.212,14:38:31.212,-9.765625,0.041992,0.174805,-0.013672,0.010498,-0.029785,0.,0.,0.,3.084229,-0.007812,0.050781,0.242188,220,216,135,110
76.312,14:38:31.312,-9.793945,0.071289,0.094727,-0.012695,0.010498,-0.027588,0.,0.,0.,3.084229,-0.007812,0.050537,0.242188,221,224,135,110
76.412,14:38:31.412,-9.793945,0.071289,0.094727,-0.012695,0.010498,-0.027588,0.,0.,0.,3.084229,-0.007812,0.050537,0.242188,221,224,135,110
76.512,14:38:31.512,-9.894531,0.046875,0.066406,-0.011475,0.016846,-0.026367,0.,0.,0.,3.084229,-0.007812,0.050781,0.242188,221,223,134,110
76.612,14:38:31.612,-9.894531,0.046875,0.066406,-0.011475,0.016846,-0.026367,0.,0.,0.,3.084229,-0.007812,0.050781,0.242188,221,223,134,110
76.712,14:38:31.712,-9.808594,0.046875,0.123047,-0.012695,0.010498,-0.024414,0.,0.,0.,3.084473,-0.007812,0.050781,0.242188,221,217,133,110
76.812,14:38:31.812,-9.808594,0.046875,0.123047,-0.012695,0.010498,-0.024414,0.,0.,0.,3.084473,-0.007812,0.050781,0.242188,221,217,133,110
76.912,14:38:31.912,-9.861328,0.113281,0.141602,-0.014893,0.009521,-0.027588,0.,0.,0.,3.084229,-0.007812,0.050781,0.242188,221,215,133,110
77.012,14:38:32.012,-9.861328,0.113281,0.141602,-0.014893,0.009521,-0.027588,0.,0.,0.,3.084229,-0.007812,0.050781,0.242188,221,215,133,110
77.112,14:38:32.112,-9.841797,0.094727,0.141602,-0.012695,0.010498,-0.028564,0.,0.,0.,3.084229,-0.007812,0.050781,0.242188,221,215,133,110
77.212,14:38:32.212,-9.841797,0.094727,0.141602,-0.012695,0.010498,-0.028564,0.,0.,0.,3.084229,-0.007812,0.050781,0.242188,221,215,133,110
77.312,14:38:32.312,-9.813477,0.137695,0.170898,-0.013672,0.013672,-0.028564,0.,0.,0.,3.084229,-0.007812,0.050781,0.242188,221,215,133,110
77.412,14:38:32.412,-9.813477,0.137695,0.170898,-0.013672,0.013672,-0.028564,0.,0.,0.,3.084229,-0.007812,0.050781,0.242188,221,215,133,110
77.512,14:38:32.512,-9.832031,0.051758,0.212891,-0.013672,0.010498,-0.032959,0.,0.,0.,3.084229,-0.007812,0.050781,0.242188,220,214,133,110
77.612,14:38:32.612,-9.894531,0.12793,0.141602,-0.011475,0.008301,-0.028564,0.,0.,0.,3.084229,-0.007812,0.050781,0.242188,220,214,133,109
77.712,14:38:32.712,-9.922852,0.084961,0.151367,-0.013672,0.009521,-0.023193,0.,0.,0.,3.084229,-0.007812,0.050781,0.242188,220,213,133,109
77.812,14:38:32.812,-9.922852,0.084961,0.151367,-0.013672,0.009521,-0.023193,0.,0.,0.,3.084229,-0.007812,0.050781,0.242188,220,213,133,109
77.912,14:38:32.912,-9.899414,0.080078,0.161133,-0.012695,0.013672,-0.027588,0.,0.,0.,3.084473,-0.007812,0.050781,0.242188,221,213,133,109
78.012,14:38:33.012,-9.899414,0.080078,0.161133,-0.012695,0.013672,-0.027588,0.,0.,0.,3.084473,-0.007812,0.050781,0.242188,221,213,133,109
78.112,14:38:33.112,-9.866211,0.15625,-0.008789,-0.012695,0.014893,-0.027588,0.,0.,0.,3.084473,-0.007812,0.050781,0.242188,221,213,133,110
78.212,14:38:33.212,-9.866211,0.15625,-0.008789,-0.012695,0.014893,-0.027588,0.,0.,0.,3.084473,-0.007812,0.050781,0.242188,221,213,133,110
78.312,14:38:33.312,-9.866211,0.15625,-0.008789,-0.012695,0.014893,-0.027588,0.,0.,0.,3.084473,-0.007812,0.050781,0.242188,221,213,133,110
78.412,14:38:33.412,-9.866211,0.15625,-0.008789,-0.012695,0.014893,-0.027588,0.,0.,0.,3.084473,-0.007812,0.050781,0.242188,221,213,133,110
78.512,14:38:33.512,-9.793945,0.071289,0.094727,-0.014893,0.009521,-0.027588,0.,0.,0.,3.085205,-0.007812,0.050781,0.242188,222,213,134,110
78.612,14:38:33.612,-9.793945,0.071289,0.094727,-0.014893,0.009521,-0.027588,0.,0.,0.,3.085205,-0.007812,0.050781,0.242188,222,213,134,110
78.712,14:38:33.712,-9.818359,0.056641,0.070312,-0.013672,0.009521,-0.028564,0.,0.,0.,3.085205,-0.007812,0.050781,0.242188,222,213,135,110
78.812,14:38:33.812,-9.818359,0.056641,0.070312,-0.013672,0.009521,-0.028564,0.,0.,0.,3.085205,-0.007812,0.050781,0.242188,222,213,135,110
78.912,14:38:33.912,-9.932617,0.013672,0.137695,-0.013672,0.013672,-0.028564,0.,0.,0.,3.085449,-0.007812,0.050781,0.242188,222,213,135,110
79.012,14:38:34.012,-9.899414,0.232422,0.146484,-0.013672,0.016846,-0.034912,0.,0.,0.,3.085449,-0.007812,0.050781,0.242188,222,214,136,110
79.112,14:38:34.112,-9.879883,0.003906,0.089844,-0.010498,0.006348,-0.014893,0.,0.,0.,3.085449,-0.007812,0.050781,0.242188,222,214,137,110
79.212,14:38:34.212,-9.889648,0.151367,0.075195,-0.013672,0.013672,-0.026367,0.,0.,0.,3.085938,-0.007812,0.050781,0.242188,223,215,158,110
79.312,14:38:34.312,-9.779297,0.033203,0.061523,-0.011475,0.012695,-0.028564,0.,0.,0.,3.086182,-0.007812,0.050781,0.242188,223,215,158,110
79.412,14:38:34.412,-9.861328,0.080078,0.137695,-0.014893,0.012695,-0.033936,0.,0.,0.,3.086426,-0.007812,0.050781,0.242188,224,216,158,110
79.512,14:38:34.512,-9.861328,0.080078,0.137695,-0.014893,0.012695,-0.033936,0.,0.,0.,3.086426,-0.007812,0.050781,0.242188,224,216,158,110
79.612,14:38:34.612,-9.861328,0.008789,0.166016,-0.011475,0.012695,-0.025391,0.,0.,0.,3.086426,-0.007812,0.050781,0.242188,224,216,158,110
79.712,14:38:34.712,-9.861328,0.008789,0.166016,-0.011475,0.012695,-0.025391,0.,0.,0.,3.086426,-0.007812,0.050781,0.242188,224,216,158,110
79.812,14:38:34.812,-9.947266,0.041992,0.166016,-0.014893,0.014893,-0.029785,0.,0.,0.,3.08667,-0.007812,0.050781,0.242188,223,216,157,110
79.912,14:38:34.912,-9.96582,-0.075195,0.099609,-0.016846,0.016846,-0.034912,0.,0.,0.,3.087158,-0.007812,0.051025,0.242188,222,222,157,110
80.012,14:38:35.012,-9.84668,0.071289,0.118164,-0.014893,0.009521,-0.022217,0.,0.,0.,3.087158,-0.007812,0.051025,0.242188,222,226,157,110
80.112,14:38:35.112,-9.84668,0.071289,0.118164,-0.014893,0.009521,-0.022217,0.,0.,0.,3.087158,-0.007812,0.051025,0.242188,222,226,157,110
80.212,14:38:35.212,-9.774414,0.194336,0.056641,-0.014893,0.012695,-0.030762,0.,0.,0.,3.087402,-0.007812,0.050781,0.242188,222,226,157,110
80.312,14:38:35.312,-9.774414,0.194336,0.056641,-0.014893,0.012695,-0.030762,0.,0.,0.,3.087402,-0.007812,0.050781,0.242188,222,226,157,110
80.412,14:38:35.412,-9.818359,0.071289,0.141602,-0.011475,0.012695,-0.024414,0.,0.,0.,3.087646,-0.007812,0.050781,0.242188,222,224,144,110
80.512,14:38:35.512,-9.818359,0.071289,0.141602,-0.011475,0.012695,-0.024414,0.,0.,0.,3.087646,-0.007812,0.050781,0.242188,222,224,144,110
80.612,14:38:35.612,-9.813477,0.075195,0.189453,-0.009521,0.011475,-0.016846,0.,0.,0.,3.087891,-0.007812,0.050781,0.242188,222,217,136,110
80.712,14:38:35.712,-9.698242,0.166016,0.12793,-0.013672,0.02002,-0.049805,0.,0.,0.,3.088135,-0.007812,0.050781,0.242188,221,215,136,110
80.812,14:38:35.812,-9.698242,0.166016,0.12793,-0.013672,0.02002,-0.049805,0.,0.,0.,3.088135,-0.007812,0.050781,0.242188,221,215,136,110
80.912,14:38:35.912,-9.698242,0.166016,0.12793,-0.013672,0.02002,-0.049805,0.,0.,0.,3.088135,-0.007812,0.050781,0.242188,221,215,136,110
81.012,14:38:36.012,-9.917969,0.094727,0.113281,-0.013672,0.016846,-0.031738,0.,0.,0.,3.088379,-0.007812,0.050781,0.242188,221,215,135,110
81.112,14:38:36.112,-9.917969,0.094727,0.113281,-0.013672,0.016846,-0.031738,0.,0.,0.,3.088379,-0.007812,0.050781,0.242188,221,215,135,110
81.212,14:38:36.212,-9.779297,0.099609,0.118164,-0.011475,0.010498,-0.030762,0.,0.,0.,3.088623,-0.007812,0.050781,0.242188,221,215,135,110
81.312,14:38:36.312,-9.779297,0.099609,0.118164,-0.011475,0.010498,-0.030762,0.,0.,0.,3.088623,-0.007812,0.050781,0.242188,221,215,135,110
81.412,14:38:36.412,-9.779297,0.099609,0.118164,-0.011475,0.010498,-0.030762,0.,0.,0.,3.088623,-0.007812,0.050781,0.242188,221,215,135,110
81.512,14:38:36.512,-9.875,-0.056641,0.056641,-0.014893,0.015869,-0.026367,0.,0.,0.,3.099609,-0.007812,0.051025,0.242188,187,213,136,110
81.612,14:38:36.612,-9.875,-0.056641,0.056641,-0.014893,0.015869,-0.026367,0.,0.,0.,3.099609,-0.007812,0.051025,0.242188,187,213,136,110
81.712,14:38:36.712,-9.856445,0.084961,0.132812,-0.012695,0.015869,-0.025391,0.,0.,0.,3.099609,-0.007812,0.051025,0.242188,188,213,135,110
81.812,14:38:36.812,-9.856445,0.084961,0.132812,-0.012695,0.015869,-0.025391,0.,0.,0.,3.099609,-0.007812,0.051025,0.242188,188,213,135,110
81.912,14:38:36.912,-9.856445,0.084961,0.132812,-0.012695,0.015869,-0.025391,0.,0.,0.,3.099609,-0.007812,0.051025,0.242188,188,213,135,110
82.012,14:38:37.012,-9.856445,0.084961,0.132812,-0.012695,0.015869,-0.025391,0.,0.,0.,3.099609,-0.007812,0.051025,0.242188,188,213,135,110
82.112,14:38:37.112,-9.851562,0.041992,0.151367,-0.012695,0.011475,-0.025391,0.,0.,0.,3.099121,-0.007812,0.050781,0.242188,220,227,134,110
82.212,14:38:37.212,-9.851562,0.041992,0.151367,-0.012695,0.011475,-0.025391,0.,0.,0.,3.099121,-0.007812,0.050781,0.242188,220,227,134,110
82.312,14:38:37.312,-9.851562,0.041992,0.151367,-0.012695,0.011475,-0.025391,0.,0.,0.,3.099121,-0.007812,0.050781,0.242188,220,227,134,110
82.412,14:38:37.412,-9.84668,0.104492,0.174805,-0.012695,0.011475,-0.027588,0.,0.,0.,3.096191,-0.007812,0.051025,0.242188,188,214,157,110
82.512,14:38:37.512,-9.894531,0.075195,0.113281,-0.013672,0.013672,-0.028564,0.,0.,0.,3.095947,-0.007568,0.051025,0.242188,220,214,156,110
82.612,14:38:37.612,-9.904297,0.075195,0.056641,-0.012695,0.010498,-0.029785,0.,0.,0.,3.096191,-0.007812,0.051025,0.242188,220,214,156,110
82.712,14:38:37.712,-9.904297,0.075195,0.056641,-0.012695,0.010498,-0.029785,0.,0.,0.,3.096191,-0.007812,0.051025,0.242188,220,214,156,110
82.812,14:38:37.812,-9.870117,0.061523,0.089844,-0.014893,0.008301,-0.026367,0.,0.,0.,3.095947,-0.007812,0.051025,0.242188,200,214,156,110
82.912,14:38:37.912,-9.870117,0.061523,0.089844,-0.014893,0.008301,-0.026367,0.,0.,0.,3.095947,-0.007812,0.051025,0.242188,200,214,156,110
83.012,14:38:38.012,-9.884766,0.033203,0.137695,-0.011475,0.011475,-0.025391,0.,0.,0.,3.095947,-0.007812,0.051025,0.242188,188,214,156,110
83.112,14:38:38.112,-9.884766,0.033203,0.137695,-0.011475,0.011475,-0.025391,0.,0.,0.,3.095947,-0.007812,0.051025,0.242188,188,214,156,110
83.212,14:38:38.212,-9.914062,0.132812,0.123047,-0.012695,0.012695,-0.028564,0.,0.,0.,3.095947,-0.007812,0.051025,0.242188,188,214,156,110
83.312,14:38:38.312,-9.914062,0.132812,0.123047,-0.012695,0.012695,-0.028564,0.,0.,0.,3.095947,-0.007812,0.051025,0.242188,188,214,156,110
83.412,14:38:38.412,-9.851562,0.118164,0.099609,-0.010498,0.011475,-0.028564,0.,0.,0.,3.095947,-0.007812,0.051025,0.242188,188,214,157,110
83.512,14:38:38.512,-9.851562,0.118164,0.099609,-0.010498,0.011475,-0.028564,0.,0.,0.,3.095947,-0.007812,0.051025,0.242188,188,214,157,110
83.612,14:38:38.612,-9.84668,0.075195,0.179688,-0.012695,0.014893,-0.028564,0.,0.,0.,3.095947,-0.007812,0.051025,0.242188,207,213,157,110
83.712,14:38:38.712,-9.866211,0.066406,0.141602,-0.012695,0.010498,-0.029785,0.,0.,0.,3.095947,-0.007812,0.051025,0.242188,221,213,157,110
83.812,14:38:38.812,-9.861328,0.046875,0.12793,-0.013672,0.014893,-0.027588,0.,0.,0.,3.095703,-0.007812,0.051025,0.242188,221,213,157,110
83.912,14:38:38.912,-9.779297,0.099609,0.118164,-0.012695,0.008301,-0.028564,0.,0.,0.,3.095703,-0.007812,0.051025,0.242188,221,213,149,110
84.012,14:38:39.012,-9.793945,0.066406,0.174805,-0.012695,0.012695,-0.025391,0.,0.,0.,3.095703,-0.007812,0.051025,0.242188,201,213,137,111
84.112,14:38:39.112,-9.818359,0.051758,0.137695,-0.011475,0.012695,-0.027588,0.,0.,0.,3.095703,-0.007812,0.051025,0.242188,188,214,137,111
84.212,14:38:39.212,-9.861328,-0.041992,0.108398,-0.013672,0.012695,-0.026367,0.,0.,0.,3.095459,-0.007812,0.05127,0.242188,187,214,137,111
84.312,14:38:39.312,-9.932617,0.089844,0.056641,-0.015869,0.016846,-0.028564,0.,0.,0.,3.095459,-0.007812,0.05127,0.242188,187,214,144,110
84.412,14:38:39.412,-9.932617,0.089844,0.056641,-0.015869,0.016846,-0.028564,0.,0.,0.,3.095459,-0.007812,0.05127,0.242188,187,214,144,110
84.512,14:38:39.512,-9.861328,0.099609,0.066406,-0.010498,0.014893,-0.026367,0.,0.,0.,3.095459,-0.007812,0.05127,0.242188,207,214,155,110
84.612,14:38:39.612,-9.861328,0.099609,0.066406,-0.010498,0.014893,-0.026367,0.,0.,0.,3.095459,-0.007812,0.05127,0.242188,207,214,155,110
84.712,14:38:39.712,-9.861328,0.099609,0.066406,-0.010498,0.014893,-0.026367,0.,0.,0.,3.095459,-0.007812,0.05127,0.242188,207,214,155,110
84.812,14:38:39.812,-9.861328,0.099609,0.066406,-0.010498,0.014893,-0.026367,0.,0.,0.,3.095459,-0.007812,0.05127,0.242188,207,214,155,110
84.912,14:38:39.912,-9.894531,0.084961,0.12793,-0.013672,0.011475,-0.028564,0.,0.,0.,3.095459,-0.007812,0.05127,0.242188,221,213,155,111
85.012,14:38:40.012,-9.894531,0.084961,0.12793,-0.013672,0.011475,-0.028564,0.,0.,0.,3.095459,-0.007812,0.05127,0.242188,221,213,155,111
85.112,14:38:40.112,-9.870117,-0.003906,0.104492,-0.010498,0.011475,-0.029785,0.,0.,0.,3.095459,-0.007812,0.05127,0.242188,221,213,156,113
85.212,14:38:40.212,-9.870117,-0.003906,0.104492,-0.010498,0.011475,-0.029785,0.,0.,0.,3.095459,-0.007812,0.05127,0.242188,221,213,156,113
85.312,14:38:40.312,-9.770508,0.084961,0.099609,-0.013672,0.010498,-0.027588,0.,0.,0.,3.095459,-0.007812,0.05127,0.242188,195,213,137,113
85.412,14:38:40.412,-9.770508,0.084961,0.099609,-0.013672,0.010498,-0.027588,0.,0.,0.,3.095459,-0.007812,0.05127,0.242188,195,213,137,113
85.512,14:38:40.512,-9.770508,0.084961,0.099609,-0.013672,0.010498,-0.027588,0.,0.,0.,3.095459,-0.007812,0.05127,0.242188,195,213,137,113
85.612,14:38:40.612,-9.866211,0.075195,0.118164,-0.014893,0.009521,-0.026367,0.,0.,0.,3.095459,-0.007812,0.051514,0.242188,214,214,136,114
85.712,14:38:40.712,-9.866211,0.075195,0.118164,-0.014893,0.009521,-0.026367,0.,0.,0.,3.095459,-0.007812,0.051514,0.242188,214,214,136,114
85.812,14:38:40.812,-9.904297,0.061523,0.15625,-0.013672,0.013672,-0.024414,0.,0.,0.,3.095459,-0.007812,0.051514,0.242188,214,214,135,114
85.912,14:38:40.912,-9.904297,0.061523,0.15625,-0.013672,0.013672,-0.024414,0.,0.,0.,3.095459,-0.007812,0.051514,0.242188,214,214,135,114
86.012,14:38:41.012,-9.856445,0.046875,0.161133,-0.012695,0.011475,-0.026367,0.,0.,0.,3.095459,-0.007812,0.051514,0.242188,194,214,135,113
86.112,14:38:41.112,-9.870117,0.084961,0.108398,-0.010498,0.011475,-0.028564,0.,0.,0.,3.095215,-0.007812,0.051514,0.242188,188,215,134,113
86.212,14:38:41.212,-9.774414,0.056641,0.118164,-0.013672,0.013672,-0.027588,0.,0.,0.,3.095215,-0.007812,0.051514,0.242188,188,215,134,113
86.312,14:38:41.312,-9.875,0.018555,0.094727,-0.013672,0.013672,-0.028564,0.,0.,0.,3.095215,-0.007812,0.051514,0.242188,188,215,134,112
86.412,14:38:41.412,-9.879883,0.061523,0.151367,-0.011475,0.013672,-0.028564,0.,0.,0.,3.095215,-0.007812,0.051514,0.242188,187,215,134,112
86.512,14:38:41.512,-9.779297,0.066406,0.199219,-0.015869,0.012695,-0.024414,0.,0.,0.,3.095215,-0.007812,0.051514,0.242188,187,215,134,111
86.612,14:38:41.612,-9.770508,0.12793,0.094727,-0.013672,0.011475,-0.025391,0.,0.,0.,3.095215,-0.007812,0.051514,0.242188,186,215,134,111
86.712,14:38:41.712,-9.770508,0.12793,0.094727,-0.013672,0.011475,-0.025391,0.,0.,0.,3.095215,-0.007812,0.051514,0.242188,186,215,134,111
86.812,14:38:41.812,-9.760742,0.080078,0.070312,-0.013672,0.009521,-0.027588,0.,0.,0.,3.095215,-0.007812,0.051514,0.242188,186,221,134,111
86.912,14:38:41.912,-9.760742,0.080078,0.070312,-0.013672,0.009521,-0.027588,0.,0.,0.,3.095215,-0.007812,0.051514,0.242188,186,221,134,111
87.012,14:38:42.012,-9.980469,0.071289,0.066406,-0.012695,0.012695,-0.025391,0.,0.,0.,3.095215,-0.007812,0.051514,0.242188,186,226,135,113
87.112,14:38:42.112,-9.980469,0.071289,0.066406,-0.012695,0.012695,-0.025391,0.,0.,0.,3.095215,-0.007812,0.051514,0.242188,186,226,135,113
87.212,14:38:42.212,-9.922852,0.037109,0.132812,-0.012695,0.013672,-0.026367,0.,0.,0.,3.095215,-0.008057,0.051514,0.242188,187,226,136,113
87.312,14:38:42.312,-9.803711,0.080078,0.123047,-0.014893,0.013672,-0.029785,0.,0.,0.,3.094971,-0.008057,0.051514,0.242188,187,226,136,113
87.412,14:38:42.412,-9.861328,0.037109,0.166016,-0.011475,0.010498,-0.028564,0.,0.,0.,3.095215,-0.008057,0.051514,0.242188,188,225,137,114
87.512,14:38:42.512,-9.866211,0.080078,0.094727,-0.012695,0.014893,-0.029785,0.,0.,0.,3.095215,-0.008057,0.051514,0.242188,201,223,137,114
87.612,14:38:42.612,-9.866211,0.080078,0.094727,-0.012695,0.014893,-0.029785,0.,0.,0.,3.095215,-0.008057,0.051514,0.242188,201,223,137,114
87.712,14:38:42.712,-9.84668,0.080078,0.15625,-0.014893,0.011475,-0.026367,0.,0.,0.,3.094971,-0.008057,0.051514,0.242188,222,218,140,113
87.812,14:38:42.812,-9.84668,0.080078,0.15625,-0.014893,0.011475,-0.026367,0.,0.,0.,3.094971,-0.008057,0.051514,0.242188,222,218,140,113
87.912,14:38:42.912,-9.914062,0.037109,0.12793,-0.012695,0.015869,-0.028564,0.,0.,0.,3.094971,-0.008057,0.051514,0.242188,222,216,152,113
88.012,14:38:43.012,-9.914062,0.037109,0.12793,-0.012695,0.015869,-0.028564,0.,0.,0.,3.094971,-0.008057,0.051514,0.242188,222,216,152,113
88.112,14:38:43.112,-9.889648,0.041992,0.075195,-0.015869,0.010498,-0.026367,0.,0.,0.,3.094971,-0.008057,0.051514,0.242188,222,216,152,113
88.212,14:38:43.212,-9.889648,0.041992,0.075195,-0.015869,0.010498,-0.026367,0.,0.,0.,3.094971,-0.008057,0.051514,0.242188,222,216,152,113
88.312,14:38:43.312,-9.803711,0.061523,0.046875,-0.014893,0.014893,-0.027588,0.,0.,0.,3.094971,-0.008057,0.051514,0.242188,221,216,140,114
88.412,14:38:43.412,-9.832031,0.066406,0.12793,-0.011475,0.011475,-0.025391,0.,0.,0.,3.094971,-0.008057,0.051514,0.242188,221,215,136,114
88.512,14:38:43.512,-9.827148,-0.003906,0.080078,-0.013672,0.012695,-0.026367,0.,0.,0.,3.094971,-0.008057,0.051514,0.242188,221,215,135,114
88.612,14:38:43.612,-9.827148,-0.003906,0.080078,-0.013672,0.012695,-0.026367,0.,0.,0.,3.094971,-0.008057,0.051514,0.242188,221,215,135,114
88.712,14:38:43.712,-9.827148,-0.003906,0.080078,-0.013672,0.012695,-0.026367,0.,0.,0.,3.094971,-0.008057,0.051514,0.242188,221,215,135,114
88.812,14:38:43.812,-9.827148,0.02832,0.099609,-0.012695,0.010498,-0.026367,0.,0.,0.,3.094727,-0.008057,0.051514,0.242188,221,214,135,114
88.912,14:38:43.912,-9.827148,0.02832,0.099609,-0.012695,0.010498,-0.026367,0.,0.,0.,3.094727,-0.008057,0.051514,0.242188,221,214,135,114
89.012,14:38:44.012,-9.836914,0.084961,0.208984,-0.015869,0.011475,-0.025391,0.,0.,0.,3.094482,-0.008057,0.051514,0.242188,222,214,134,114
89.112,14:38:44.112,-9.836914,0.084961,0.208984,-0.015869,0.011475,-0.025391,0.,0.,0.,3.094482,-0.008057,0.051514,0.242188,222,214,134,114
