Time,UTC,FINKEN_SENSOR_MODEL:acceleration_z,FINKEN_SENSOR_MODEL:acceleration_y,FINKEN_SENSOR_MODEL:acceleration_x,FINKEN_SENSOR_MODEL:velocity_yaw,FINKEN_SENSOR_MODEL:velocity_roll,FINKEN_SENSOR_MODEL:velocity_pitch,FINKEN_SENSOR_MODEL:velocity_z,FINKEN_SENSOR_MODEL:velocity_y,FINKEN_SENSOR_MODEL:velocity_x,FINKEN_SENSOR_MODEL:pos_yaw,FINKEN_SENSOR_MODEL:pos_roll,FINKEN_SENSOR_MODEL:pos_pitch,FINKEN_SENSOR_MODEL:pos_z,FINKEN_SENSOR_MODEL:distance_d_back,FINKEN_SENSOR_MODEL:distance_d_left,FINKEN_SENSOR_MODEL:distance_d_rigth,FINKEN_SENSOR_MODEL:distance_d_front
2.570,15:19:21.570,-9.798828,0.137695,0.161133,-0.009521,0.011475,-0.026367,0.,0.,0.,2.486572,-0.01416,0.054932,0.25,101,45,51,101
2.670,15:19:21.670,-9.922852,0.237305,0.12793,-0.009521,0.011475,-0.028564,0.,0.,0.,2.488037,-0.01416,0.054932,0.25,101,45,51,101
2.770,15:19:21.770,-9.904297,0.113281,0.18457,-0.011475,0.010498,-0.025391,0.,0.,0.,2.48877,-0.01416,0.054688,0.25,101,45,51,101
2.870,15:19:21.870,-9.904297,0.113281,0.18457,-0.011475,0.010498,-0.025391,0.,0.,0.,2.48877,-0.01416,0.054688,0.25,101,45,51,101
2.970,15:19:21.970,-9.750977,0.089844,0.108398,-0.011475,0.013672,-0.027588,0.,0.,0.,2.490234,-0.01416,0.054688,0.25,101,45,51,101
3.070,15:19:22.070,-9.808594,0.275391,0.151367,-0.011475,0.015869,-0.028564,0.,0.,0.,2.490723,-0.01416,0.054688,0.25,101,45,51,101
3.170,15:19:22.170,-9.870117,0.118164,0.113281,-0.009521,0.012695,-0.026367,0.,0.,0.,2.491455,-0.01416,0.054688,0.25,102,45,51,101
3.270,15:19:22.270,-9.746094,0.15625,0.174805,-0.011475,0.015869,-0.027588,0.,0.,0.,2.492188,-0.01416,0.054688,0.25,102,45,51,101
3.370,15:19:22.370,-9.746094,0.213867,0.151367,-0.009521,0.011475,-0.024414,0.,0.,0.,2.493164,-0.01416,0.054688,0.25,102,45,51,101
3.470,15:19:22.470,-9.922852,0.132812,0.174805,-0.011475,0.013672,-0.026367,0.,0.,0.,2.493896,-0.01416,0.054688,0.25,102,45,51,101
3.570,15:19:22.570,-9.84668,0.151367,0.237305,-0.010498,0.011475,-0.025391,0.,0.,0.,2.494873,-0.01416,0.054443,0.25,102,45,51,101
3.670,15:19:22.670,-9.793945,0.132812,0.113281,-0.010498,0.012695,-0.026367,0.,0.,0.,2.495361,-0.01416,0.054443,0.25,102,45,51,101
3.770,15:19:22.770,-9.832031,0.18457,0.108398,-0.011475,0.013672,-0.028564,0.,0.,0.,2.49585,-0.01416,0.054443,0.25,102,45,51,101
3.870,15:19:22.870,-9.832031,0.18457,0.108398,-0.011475,0.013672,-0.028564,0.,0.,0.,2.49585,-0.01416,0.054443,0.25,102,45,51,101
3.970,15:19:22.970,-9.789062,0.146484,0.199219,-0.010498,0.014893,-0.025391,0.,0.,0.,2.496582,-0.01416,0.054688,0.25,102,45,51,101
4.070,15:19:23.070,-9.803711,0.166016,0.151367,-0.011475,0.011475,-0.024414,0.,0.,0.,2.498291,-0.014404,0.054688,0.25,102,45,51,101
4.170,15:19:23.170,-9.866211,0.18457,0.12793,-0.010498,0.008301,-0.025391,0.,0.,0.,2.499023,-0.01416,0.054688,0.25,102,45,51,101
4.270,15:19:23.270,-9.818359,0.151367,0.104492,-0.010498,0.014893,-0.028564,0.,0.,0.,2.499756,-0.01416,0.054688,0.25,102,45,51,101
4.370,15:19:23.370,-9.856445,0.104492,0.113281,-0.010498,0.014893,-0.026367,0.,0.,0.,2.500244,-0.01416,0.054688,0.25,102,45,51,101
4.470,15:19:23.470,-9.779297,0.175781,0.132812,-0.011475,0.011475,-0.025391,0.,0.,0.,2.500977,-0.01416,0.054688,0.25,102,45,51,101
4.570,15:19:23.570,-9.765625,0.166016,0.174805,-0.010498,0.011475,-0.024414,0.,0.,0.,2.501953,-0.01416,0.054443,0.25,102,45,51,101
4.670,15:19:23.670,-9.755859,0.118164,0.108398,-0.011475,0.013672,-0.027588,0.,0.,0.,2.502686,-0.01416,0.054443,0.25,102,45,51,101
4.770,15:19:23.770,-9.884766,0.189453,0.118164,-0.011475,0.012695,-0.027588,0.,0.,0.,2.503418,-0.01416,0.054443,0.25,102,45,51,101
4.870,15:19:23.870,-9.884766,0.189453,0.118164,-0.011475,0.012695,-0.027588,0.,0.,0.,2.503418,-0.01416,0.054443,0.25,102,45,51,101
4.970,15:19:23.970,-9.736328,0.18457,0.151367,-0.013672,0.012695,-0.025391,0.,0.,0.,2.504639,-0.01416,0.054443,0.25,102,45,51,101
5.070,15:19:24.070,-9.770508,0.037109,0.189453,-0.009521,0.019043,-0.026367,0.,0.,0.,2.505615,-0.01416,0.054443,0.25,102,45,51,101
5.170,15:19:24.170,-9.866211,0.175781,0.075195,-0.015869,0.008301,-0.024414,0.,0.,0.,2.506348,-0.01416,0.054443,0.25,102,45,51,101
5.270,15:19:24.270,-9.875,0.166016,0.194336,-0.009521,0.013672,-0.025391,0.,0.,0.,2.506836,-0.01416,0.054443,0.25,102,45,51,101
5.370,15:19:24.370,-9.827148,0.099609,0.104492,-0.010498,0.010498,-0.024414,0.,0.,0.,2.507812,-0.01416,0.054443,0.25,102,45,51,101
5.470,15:19:24.470,-9.703125,0.118164,0.084961,-0.009521,0.013672,-0.026367,0.,0.,0.,2.508301,-0.01416,0.054199,0.25,102,45,51,101
5.570,15:19:24.570,-9.703125,0.118164,0.084961,-0.009521,0.013672,-0.026367,0.,0.,0.,2.508301,-0.01416,0.054199,0.25,102,45,51,101
5.670,15:19:24.670,-9.78418,0.170898,0.108398,-0.009521,0.012695,-0.026367,0.,0.,0.,2.51001,-0.01416,0.054199,0.25,102,45,51,101
5.770,15:19:24.770,-9.78418,0.170898,0.108398,-0.009521,0.012695,-0.026367,0.,0.,0.,2.51001,-0.01416,0.054199,0.25,102,45,51,101
5.870,15:19:24.870,-9.746094,0.132812,0.108398,-0.012695,0.014893,-0.024414,0.,0.,0.,2.510742,-0.01416,0.054199,0.25,101,45,51,101
5.970,15:19:24.970,-9.851562,0.166016,0.166016,-0.012695,0.010498,-0.024414,0.,0.,0.,2.51123,-0.01416,0.054199,0.25,101,45,51,101
6.070,15:19:25.070,-9.803711,0.089844,0.170898,-0.011475,0.014893,-0.028564,0.,0.,0.,2.512939,-0.01416,0.054199,0.25,101,45,51,101
6.170,15:19:25.170,-9.770508,0.170898,0.137695,-0.013672,0.012695,-0.026367,0.,0.,0.,2.513672,-0.01416,0.054199,0.25,101,45,51,101
6.270,15:19:25.270,-9.827148,0.104492,0.113281,-0.012695,0.014893,-0.027588,0.,0.,0.,2.514648,-0.01416,0.054199,0.25,101,45,51,101
6.370,15:19:25.370,-9.779297,0.170898,0.089844,-0.011475,0.014893,-0.027588,0.,0.,0.,2.515137,-0.01416,0.054199,0.25,101,45,51,101
6.470,15:19:25.470,-9.750977,0.113281,0.075195,-0.011475,0.014893,-0.026367,0.,0.,0.,2.515869,-0.01416,0.054199,0.25,101,45,51,101
6.570,15:19:25.570,-9.793945,0.170898,0.118164,-0.011475,0.012695,-0.026367,0.,0.,0.,2.516602,-0.01416,0.054199,0.25,101,45,51,101
6.670,15:19:25.670,-9.731445,0.208984,0.099609,-0.012695,0.009521,-0.025391,0.,0.,0.,2.517334,-0.01416,0.054199,0.25,101,45,51,101
6.770,15:19:25.770,-9.914062,0.113281,0.099609,-0.009521,0.015869,-0.025391,0.,0.,0.,2.518799,-0.01416,0.053955,0.25,102,45,51,101
6.870,15:19:25.870,-9.90918,0.170898,0.104492,-0.009521,0.011475,-0.026367,0.,0.,0.,2.519531,-0.01416,0.053955,0.25,102,45,51,101
6.970,15:19:25.970,-9.813477,0.213867,0.12793,-0.009521,0.009521,-0.026367,0.,0.,0.,2.520264,-0.01416,0.053955,0.25,102,45,51,101
7.070,15:19:26.070,-9.84668,0.089844,0.137695,-0.010498,0.010498,-0.025391,0.,0.,0.,2.522705,-0.01416,0.053955,0.25,102,45,51,101
7.170,15:19:26.170,-9.866211,0.113281,0.075195,-0.009521,0.011475,-0.027588,0.,0.,0.,2.523193,-0.01416,0.053955,0.25,102,45,51,101
7.270,15:19:26.270,-9.866211,0.113281,0.075195,-0.009521,0.011475,-0.027588,0.,0.,0.,2.523193,-0.01416,0.053955,0.25,102,45,51,101
7.370,15:19:26.370,-9.78418,0.123047,0.094727,-0.009521,0.012695,-0.025391,0.,0.,0.,2.524658,-0.01416,0.053955,0.25,102,45,51,101
7.470,15:19:26.470,-9.78418,0.123047,0.094727,-0.009521,0.012695,-0.025391,0.,0.,0.,2.524658,-0.01416,0.053955,0.25,102,45,51,101
7.570,15:19:26.570,-9.894531,0.175781,0.118164,-0.011475,0.010498,-0.025391,0.,0.,0.,2.525391,-0.01416,0.053955,0.25,102,45,51,101
7.670,15:19:26.670,-9.894531,0.175781,0.118164,-0.011475,0.010498,-0.025391,0.,0.,0.,2.525391,-0.01416,0.053955,0.25,102,45,51,101
7.770,15:19:26.770,-9.894531,0.175781,0.118164,-0.011475,0.010498,-0.025391,0.,0.,0.,2.525391,-0.01416,0.053955,0.25,102,45,51,101
7.870,15:19:26.870,-9.789062,0.15625,0.118164,-0.014893,0.012695,-0.023193,0.,0.,0.,2.527344,-0.014404,0.053955,0.25,102,45,51,101
7.970,15:19:26.970,-9.789062,0.15625,0.118164,-0.014893,0.012695,-0.023193,0.,0.,0.,2.527344,-0.014404,0.053955,0.25,102,45,51,101
8.070,15:19:27.070,-9.818359,0.123047,0.199219,-0.010498,0.013672,-0.026367,0.,0.,0.,2.52832,-0.01416,0.053955,0.25,102,45,51,101
8.170,15:19:27.170,-9.818359,0.123047,0.199219,-0.010498,0.013672,-0.026367,0.,0.,0.,2.52832,-0.01416,0.053955,0.25,102,45,51,101
8.270,15:19:27.270,-9.836914,0.15625,0.099609,-0.011475,0.010498,-0.029785,0.,0.,0.,2.529785,-0.01416,0.053955,0.25,102,45,51,101
8.370,15:19:27.370,-9.836914,0.15625,0.099609,-0.011475,0.010498,-0.029785,0.,0.,0.,2.529785,-0.01416,0.053955,0.25,102,45,51,101
8.470,15:19:27.470,-9.78418,0.232422,0.118164,-0.011475,0.012695,-0.024414,0.,0.,0.,2.530518,-0.01416,0.053955,0.25,102,45,51,101
8.570,15:19:27.570,-9.78418,0.232422,0.118164,-0.011475,0.012695,-0.024414,0.,0.,0.,2.530518,-0.01416,0.053955,0.25,102,45,51,101
8.670,15:19:27.670,-9.827148,0.15625,0.212891,-0.010498,0.012695,-0.028564,0.,0.,0.,2.531738,-0.01416,0.053955,0.25,102,45,51,101
8.770,15:19:27.770,-9.827148,0.15625,0.099609,-0.011475,0.013672,-0.024414,0.,0.,0.,2.532471,-0.01416,0.053955,0.25,102,45,51,101
8.870,15:19:27.870,-9.827148,0.15625,0.099609,-0.011475,0.013672,-0.024414,0.,0.,0.,2.532471,-0.01416,0.053955,0.25,102,45,51,101
8.970,15:19:27.970,-9.818359,0.118164,0.12793,-0.013672,0.013672,-0.028564,0.,0.,0.,2.533936,-0.01416,0.053711,0.25,102,45,51,101
9.070,15:19:28.070,-9.808594,0.166016,0.132812,-0.013672,0.014893,-0.025391,0.,0.,0.,2.534668,-0.014404,0.053711,0.25,102,45,51,101
9.170,15:19:28.170,-9.803711,0.175781,0.179688,-0.013672,0.011475,-0.027588,0.,0.,0.,2.5354,-0.014404,0.053711,0.25,102,45,51,101
9.270,15:19:28.270,-9.813477,0.12793,0.141602,-0.010498,0.008301,-0.026367,0.,0.,0.,2.537598,-0.014404,0.053711,0.25,102,45,51,101
9.370,15:19:28.370,-9.813477,0.12793,0.141602,-0.010498,0.008301,-0.026367,0.,0.,0.,2.537598,-0.014404,0.053711,0.25,102,45,51,101
9.470,15:19:28.470,-9.813477,0.12793,0.141602,-0.010498,0.008301,-0.026367,0.,0.,0.,2.537598,-0.014404,0.053711,0.25,102,45,51,101
9.570,15:19:28.570,-9.818359,0.166016,0.170898,-0.012695,0.013672,-0.026367,0.,0.,0.,2.539551,-0.014404,0.053711,0.25,102,45,51,101
9.670,15:19:28.670,-9.818359,0.166016,0.170898,-0.012695,0.013672,-0.026367,0.,0.,0.,2.539551,-0.014404,0.053711,0.25,102,45,51,101
9.770,15:19:28.770,-9.774414,0.137695,0.12793,-0.015869,0.012695,-0.023193,0.,0.,0.,2.541748,-0.014404,0.053467,0.25,102,45,51,101
9.870,15:19:28.870,-9.866211,0.123047,0.170898,-0.010498,0.011475,-0.027588,0.,0.,0.,2.54248,-0.014404,0.053467,0.25,102,45,51,101
9.970,15:19:28.970,-9.818359,0.118164,0.132812,-0.009521,0.012695,-0.026367,0.,0.,0.,2.543701,-0.014404,0.053467,0.25,102,45,51,101
10.070,15:19:29.070,-9.818359,0.118164,0.132812,-0.009521,0.012695,-0.026367,0.,0.,0.,2.543701,-0.014404,0.053467,0.25,102,45,51,101
10.170,15:19:29.170,-9.866211,0.118164,0.161133,-0.012695,0.012695,-0.027588,0.,0.,0.,2.544678,-0.014404,0.053467,0.25,102,45,51,101
10.270,15:19:29.270,-9.866211,0.118164,0.161133,-0.012695,0.012695,-0.027588,0.,0.,0.,2.544678,-0.014404,0.053467,0.25,102,45,51,101
10.370,15:19:29.370,-9.866211,0.118164,0.161133,-0.012695,0.012695,-0.027588,0.,0.,0.,2.544678,-0.014404,0.053467,0.25,102,45,51,101
10.470,15:19:29.470,-9.851562,0.18457,0.166016,-0.010498,0.010498,-0.025391,0.,0.,0.,2.546387,-0.014648,0.053223,0.25,102,45,51,101
10.570,15:19:29.570,-9.851562,0.18457,0.166016,-0.010498,0.010498,-0.025391,0.,0.,0.,2.546387,-0.014648,0.053223,0.25,102,45,51,101
10.670,15:19:29.670,-9.851562,0.18457,0.166016,-0.010498,0.010498,-0.025391,0.,0.,0.,2.546387,-0.014648,0.053223,0.25,102,45,51,101
10.770,15:19:29.770,-9.808594,0.199219,0.146484,-0.012695,0.009521,-0.026367,0.,0.,0.,2.547852,-0.014648,0.053223,0.25,102,45,51,101
10.870,15:19:29.870,-9.808594,0.199219,0.146484,-0.012695,0.009521,-0.026367,0.,0.,0.,2.547852,-0.014648,0.053223,0.25,102,45,51,101
10.970,15:19:29.970,-9.813477,0.080078,0.146484,-0.011475,0.011475,-0.027588,0.,0.,0.,2.549316,-0.014648,0.053223,0.25,101,45,51,101
11.070,15:19:30.070,-9.813477,0.080078,0.146484,-0.011475,0.011475,-0.027588,0.,0.,0.,2.549316,-0.014648,0.053223,0.25,101,45,51,101
11.170,15:19:30.170,-9.770508,0.104492,0.123047,-0.012695,0.010498,-0.024414,0.,0.,0.,2.550049,-0.014648,0.053223,0.25,101,45,51,101
11.270,15:19:30.270,-9.798828,0.208984,0.151367,-0.013672,0.014893,-0.028564,0.,0.,0.,2.550537,-0.014648,0.053223,0.25,101,45,51,101
11.370,15:19:30.370,-9.789062,0.108398,0.151367,-0.010498,0.011475,-0.025391,0.,0.,0.,2.551514,-0.014648,0.053223,0.25,101,45,51,101
11.470,15:19:30.470,-9.789062,0.108398,0.151367,-0.010498,0.011475,-0.025391,0.,0.,0.,2.551514,-0.014648,0.053223,0.25,101,45,51,101
11.570,15:19:30.570,-9.62207,0.336914,-0.151367,0.088135,0.003174,-0.061523,0.,0.,0.,2.552734,-0.014893,0.053467,0.25,101,45,51,101
11.670,15:19:30.670,-9.544922,0.855469,0.393555,-0.031738,0.009521,-0.108398,0.,0.,0.,2.553467,-0.014648,0.053223,0.25,101,45,51,101
11.770,15:19:30.770,-10.866211,-0.023438,1.120117,-0.023193,-0.016846,-0.098877,0.,0.,0.,2.553955,-0.014893,0.052979,0.25,101,45,51,101
11.870,15:19:30.870,-9.927734,-1.46875,0.754883,0.006348,0.009521,0.011475,0.,0.,0.,2.554443,-0.015625,0.052979,0.25,101,45,51,101
11.970,15:19:30.970,-11.03418,-0.384766,0.902344,-0.031738,0.026367,0.061523,0.,0.,0.,2.55542,-0.014648,0.053223,0.25,101,45,51,101
12.070,15:19:31.070,-10.105469,-0.265625,0.061523,-0.052002,0.034912,-0.052979,0.,0.,0.,2.555908,-0.014893,0.053467,0.25,101,45,51,102
12.170,15:19:31.170,-9.056641,-0.860352,-0.379883,0.003174,-0.051025,0.051025,0.,0.,0.,2.556641,-0.014648,0.053467,0.25,102,45,51,101
12.270,15:19:31.270,-10.59375,0.78418,0.151367,-0.006348,-0.027588,-0.011475,0.,0.,0.,2.557129,-0.014648,0.053223,0.25,102,45,51,101
12.370,15:19:31.370,-10.206055,0.194336,-0.735352,-0.033936,-0.034912,-0.154297,0.,0.,0.,2.557861,-0.015137,0.053467,0.25,102,45,51,102
12.470,15:19:31.470,-8.908203,-1.069336,-0.146484,-0.008301,-0.092529,-0.026367,0.,0.,0.,2.558594,-0.015137,0.053467,0.25,102,45,51,102
12.570,15:19:31.570,-10.201172,0.351562,0.954102,-0.011475,-0.001953,-0.073242,0.,0.,0.,2.559326,-0.015137,0.052979,0.25,102,45,51,101
12.670,15:19:31.670,-10.445312,-0.413086,-0.023438,-0.02002,0.114746,-0.090332,0.,0.,0.,2.559814,-0.015137,0.053711,0.25,102,45,51,101
12.770,15:19:31.770,-8.238281,0.260742,-1.376953,-0.003174,-0.047852,0.005127,0.,0.,0.,2.560547,-0.014404,0.053467,0.25,102,45,51,101
12.870,15:19:31.870,-10.234375,-0.227539,0.897461,-0.00415,0.099854,-0.127686,0.,0.,0.,2.562012,-0.014893,0.053223,0.25,102,45,51,101
12.970,15:19:31.970,-10.291992,0.323242,0.902344,-0.007324,0.007324,0.056396,0.,0.,0.,2.562744,-0.01416,0.052246,0.25,102,45,51,101
13.070,15:19:32.070,-8.956055,0.199219,-0.897461,-0.007324,0.010498,0.024414,0.,0.,0.,2.563232,-0.014404,0.052002,0.25,103,45,51,101
13.170,15:19:32.170,-9.625977,-0.170898,-1.020508,0.005127,-0.04248,-0.045654,0.,0.,0.,2.563721,-0.014404,0.052002,0.25,103,45,51,101
13.270,15:19:32.270,-10.344727,-0.046875,0.944336,0.02002,0.083008,-0.04248,0.,0.,0.,2.564453,-0.014404,0.052002,0.25,103,45,51,101
13.370,15:19:32.370,-10.105469,0.499023,0.199219,-0.030762,0.,-0.041504,0.,0.,0.,2.565186,-0.014648,0.052002,0.25,103,45,51,101
13.470,15:19:32.470,-10.105469,0.499023,0.199219,-0.030762,0.,-0.041504,0.,0.,0.,2.565186,-0.014648,0.052002,0.25,103,45,51,101
13.570,15:19:32.570,-9.578125,0.646484,1.5625,-0.009521,-0.038086,0.019043,0.,0.,0.,2.565918,-0.014893,0.051514,0.25,103,45,51,101
13.670,15:19:32.670,-9.40625,-0.013672,-0.370117,0.015869,0.046631,-0.00415,0.,0.,0.,2.56665,-0.014648,0.052002,0.25,103,45,51,140
13.770,15:19:32.770,-9.708008,-0.550781,-1.34375,-0.000977,-0.044678,-0.00415,0.,0.,0.,2.567139,-0.014404,0.052002,0.25,103,45,51,254
13.870,15:19:32.870,-8.759766,-0.15625,-0.332031,-0.031738,0.057373,-0.052002,0.,0.,0.,2.567871,-0.013916,0.052002,0.25,103,45,51,216
13.970,15:19:32.970,-10.450195,0.422852,0.735352,-0.018066,-0.018066,-0.073242,0.,0.,0.,2.568604,-0.014404,0.051514,0.25,104,45,51,101
14.070,15:19:33.070,-10.454102,0.507812,1.932617,-0.008301,0.108398,0.024414,0.,0.,0.,2.569336,-0.014404,0.051514,0.25,104,45,51,177
14.170,15:19:33.170,-9.765625,0.436523,-0.731445,-0.025391,-0.010498,0.047852,0.,0.,0.,2.570312,-0.014404,0.052002,0.25,104,45,51,293
14.270,15:19:33.270,-8.850586,0.166016,-0.246094,0.007324,-0.051025,0.040283,0.,0.,0.,2.570557,-0.01416,0.051758,0.25,104,45,51,216
14.370,15:19:33.370,-9.683594,-0.099609,-0.393555,0.008301,0.081787,-0.049805,0.,0.,0.,2.571289,-0.014404,0.052002,0.25,104,45,51,102
14.470,15:19:33.470,-10.55957,0.,0.630859,-0.018066,0.032959,-0.061523,0.,0.,0.,2.572021,-0.014893,0.051514,0.25,106,45,51,102
14.570,15:19:33.570,-9.683594,1.016602,0.90625,-0.029785,0.074463,-0.039307,0.,0.,0.,2.572754,-0.014648,0.051758,0.25,105,45,51,102
14.670,15:19:33.670,-9.477539,-0.094727,-0.15625,-0.013672,-0.046631,-0.003174,0.,0.,0.,2.573486,-0.01416,0.051758,0.25,105,45,51,102
14.770,15:19:33.770,-9.554688,-0.208984,0.099609,0.009521,0.074463,0.012695,0.,0.,0.,2.574219,-0.013916,0.051758,0.25,105,45,51,102
14.870,15:19:33.870,-9.554688,-0.208984,0.099609,0.009521,0.074463,0.012695,0.,0.,0.,2.574219,-0.013916,0.051758,0.25,105,45,51,102
14.970,15:19:33.970,-9.089844,0.123047,0.864258,-0.005127,0.003174,-0.091309,0.,0.,0.,2.575439,-0.014404,0.052002,0.25,105,45,51,294
15.070,15:19:34.070,-9.961914,0.726562,1.020508,-0.024414,0.049805,-0.089355,0.,0.,0.,2.576172,-0.01416,0.052002,0.25,105,45,51,294
15.170,15:19:34.170,-10.660156,-0.080078,0.973633,0.001953,0.018066,-0.000977,0.,0.,0.,2.576904,-0.013916,0.052002,0.25,105,45,51,294
15.270,15:19:34.270,-9.046875,0.123047,-1.291016,-0.007324,0.039307,0.001953,0.,0.,0.,2.577393,-0.013916,0.052734,0.25,105,45,51,217
15.370,15:19:34.370,-9.023438,-0.365234,-1.462891,-0.02124,-0.075439,-0.064697,0.,0.,0.,2.577881,-0.01416,0.052246,0.25,105,45,51,102
15.470,15:19:34.470,-9.640625,-0.179688,1.333984,-0.016846,0.089355,-0.098877,0.,0.,0.,2.578613,-0.013916,0.052246,0.25,106,45,51,102
15.570,15:19:34.570,-10.986328,0.046875,0.630859,-0.02124,0.028564,-0.052002,0.,0.,0.,2.579102,-0.013916,0.052002,0.25,105,45,51,103
15.670,15:19:34.670,-10.986328,0.046875,0.630859,-0.02124,0.028564,-0.052002,0.,0.,0.,2.579102,-0.013916,0.052002,0.25,105,45,51,103
15.770,15:19:34.770,-9.416016,0.166016,-1.277344,-0.016846,-0.067871,-0.007324,0.,0.,0.,2.580566,-0.013916,0.052246,0.25,105,45,51,103
15.870,15:19:34.870,-9.416016,0.166016,-1.277344,-0.016846,-0.067871,-0.007324,0.,0.,0.,2.580566,-0.013916,0.052246,0.25,105,45,51,103
15.970,15:19:34.970,-9.416016,0.166016,-1.277344,-0.016846,-0.067871,-0.007324,0.,0.,0.,2.580566,-0.013916,0.052246,0.25,105,45,51,103
16.070,15:19:35.070,-9.914062,0.280273,1.219727,-0.010498,-0.02002,-0.048828,0.,0.,0.,2.582031,-0.013916,0.052002,0.25,105,45,51,101
16.170,15:19:35.170,-9.808594,0.774414,1.078125,-0.006348,0.104248,0.,0.,0.,0.,2.583008,-0.013916,0.052246,0.25,105,45,51,102
16.270,15:19:35.270,-10.641602,0.008789,-1.053711,0.007324,-0.025391,0.046631,0.,0.,0.,2.583496,-0.01416,0.05249,0.25,105,45,51,217
16.370,15:19:35.370,-8.75,-0.118164,-0.626953,-0.005127,0.010498,0.015869,0.,0.,0.,2.584229,-0.013916,0.052246,0.25,105,45,51,294
16.470,15:19:35.470,-9.712891,0.084961,-0.436523,-0.024414,-0.005127,-0.076416,0.,0.,0.,2.584717,-0.01416,0.052246,0.25,105,45,51,178
16.570,15:19:35.570,-10.602539,0.237305,2.350586,0.000977,0.108398,-0.030762,0.,0.,0.,2.585449,-0.013916,0.052246,0.25,105,45,51,102
16.670,15:19:35.670,-10.579102,0.646484,-0.113281,-0.031738,0.055176,-0.003174,0.,0.,0.,2.585938,-0.013672,0.052734,0.25,105,45,51,102
16.770,15:19:35.770,-9.147461,-0.217773,-0.655273,-0.011475,-0.075439,0.008301,0.,0.,0.,2.58667,-0.01416,0.05249,0.25,105,45,51,103
16.870,15:19:35.870,-9.147461,-0.217773,-0.655273,-0.011475,-0.075439,0.008301,0.,0.,0.,2.58667,-0.01416,0.05249,0.25,105,45,51,103
16.970,15:19:35.970,-10.253906,-0.503906,0.768555,0.,0.003174,-0.071289,0.,0.,0.,2.587646,-0.014404,0.052734,0.25,105,45,51,102
17.070,15:19:36.070,-9.975586,0.507812,0.488281,-0.023193,0.111572,-0.056396,0.,0.,0.,2.588379,-0.014404,0.053223,0.25,105,45,51,101
17.170,15:19:36.170,-9.975586,0.541016,0.379883,-0.029785,-0.069092,0.001953,0.,0.,0.,2.588867,-0.014648,0.052734,0.25,105,45,51,101
17.270,15:19:36.270,-9.185547,0.422852,-0.242188,0.000977,0.015869,0.026367,0.,0.,0.,2.5896,-0.014404,0.052734,0.25,106,45,51,101
17.370,15:19:36.370,-10.239258,-0.78418,-1.053711,0.006348,-0.037109,-0.051025,0.,0.,0.,2.590332,-0.014648,0.052979,0.25,107,45,51,140
17.470,15:19:36.470,-9.774414,-0.151367,0.854492,-0.014893,0.065918,-0.031738,0.,0.,0.,2.590576,-0.014648,0.052979,0.25,107,45,51,255
17.570,15:19:36.570,-9.688477,0.855469,0.545898,-0.011475,0.016846,-0.072266,0.,0.,0.,2.591064,-0.014648,0.052734,0.25,104,45,51,255
17.670,15:19:36.670,-10.291992,0.046875,-1.348633,-0.02124,-0.02002,-0.008301,0.,0.,0.,2.592529,-0.013916,0.052979,0.25,104,45,51,102
17.770,15:19:36.770,-10.291992,0.046875,-1.348633,-0.02124,-0.02002,-0.008301,0.,0.,0.,2.592529,-0.013916,0.052979,0.25,104,45,51,102
17.870,15:19:36.870,-9.128906,0.051758,0.446289,-0.009521,0.081787,-0.086182,0.,0.,0.,2.593506,-0.013916,0.052979,0.25,105,45,51,140
17.970,15:19:36.970,-10.928711,0.15625,1.234375,0.014893,0.071289,-0.056396,0.,0.,0.,2.593994,-0.013916,0.052734,0.25,104,45,51,255
18.070,15:19:37.070,-9.985352,0.608398,0.123047,-0.025391,0.07959,-0.003174,0.,0.,0.,2.594482,-0.013672,0.052979,0.25,104,45,51,294
18.170,15:19:37.170,-9.46875,-0.113281,-1.462891,-0.027588,-0.143555,-0.019043,0.,0.,0.,2.595215,-0.013672,0.052979,0.25,104,45,51,294
18.270,15:19:37.270,-9.114258,-0.527344,0.55957,0.007324,0.023193,-0.022217,0.,0.,0.,2.595703,-0.013672,0.053223,0.25,104,45,51,256
18.370,15:19:37.370,-9.114258,-0.527344,0.55957,0.007324,0.023193,-0.022217,0.,0.,0.,2.595703,-0.013672,0.053223,0.25,104,45,51,256
18.470,15:19:37.470,-10.37793,-0.698242,0.222656,-0.00415,0.072266,-0.027588,0.,0.,0.,2.596436,-0.013916,0.053223,0.25,105,45,51,140
18.570,15:19:37.570,-9.741211,1.079102,1.229492,-0.012695,0.107422,0.010498,0.,0.,0.,2.596924,-0.01416,0.053223,0.25,105,45,51,140
18.670,15:19:37.670,-9.975586,0.802734,-1.111328,-0.018066,-0.109375,-0.005127,0.,0.,0.,2.597412,-0.01416,0.053223,0.25,105,45,51,255
18.770,15:19:37.770,-9.875,-0.327148,0.987305,0.001953,-0.02002,0.039307,0.,0.,0.,2.598145,-0.014404,0.053467,0.25,105,45,51,255
18.870,15:19:37.870,-9.501953,-0.84082,-0.583984,-0.003174,0.052979,-0.026367,0.,0.,0.,2.598877,-0.014648,0.053955,0.25,105,45,51,141
18.970,15:19:37.970,-9.181641,0.413086,0.882812,-0.012695,0.05835,-0.052979,0.,0.,0.,2.599365,-0.014893,0.053711,0.25,105,45,51,102
19.070,15:19:38.070,-10.435547,1.601562,-0.008789,-0.025391,0.001953,-0.092529,0.,0.,0.,2.599854,-0.014648,0.053955,0.25,105,45,51,102
19.170,15:19:38.170,-10.703125,0.379883,1.149414,-0.013672,-0.045654,-0.045654,0.,0.,0.,2.600342,-0.01416,0.053467,0.25,105,45,51,101
19.270,15:19:38.270,-9.181641,-0.59375,-0.612305,-0.015869,-0.016846,-0.022217,0.,0.,0.,2.60083,-0.01416,0.053955,0.25,105,45,51,101
19.370,15:19:38.370,-8.764648,-0.78418,0.507812,0.001953,0.008301,-0.047852,0.,0.,0.,2.601562,-0.013916,0.053467,0.25,105,45,51,101
19.470,15:19:38.470,-10.119141,0.432617,-0.023438,-0.000977,0.0979,-0.125488,0.,0.,0.,2.602295,-0.013184,0.053711,0.25,105,45,51,101
19.570,15:19:38.570,-11.450195,0.698242,0.383789,-0.008301,-0.036133,-0.062744,0.,0.,0.,2.603027,-0.013428,0.053467,0.25,105,45,51,101
19.670,15:19:38.670,-9.521484,0.213867,0.003906,-0.022217,0.02002,0.02002,0.,0.,0.,2.60376,-0.013428,0.053711,0.25,105,45,51,102
19.770,15:19:38.770,-11.435547,-0.902344,0.645508,-0.036133,0.17749,-0.236084,0.,0.,0.,2.604004,-0.017822,0.059326,0.25,106,45,51,179
19.870,15:19:38.870,-11.163086,-0.507812,-0.227539,-0.02124,1.572754,-0.498047,0.,0.,0.,2.602783,-0.046387,0.124512,0.25,106,45,51,295
19.970,15:19:38.970,-11.163086,-0.94043,0.227539,-0.182861,-3.4021,1.354736,0.,0.,0.,2.598877,0.,0.028809,0.234375,106,45,51,217
20.070,15:19:39.070,-10.794922,0.008789,0.075195,-0.124512,-0.890625,0.209473,0.,0.,0.,2.585938,0.033936,-0.057861,0.207031,105,63,51,101
20.170,15:19:39.170,-10.712891,-0.626953,0.735352,-0.128662,1.564209,-0.280762,0.,0.,0.,2.57666,0.045898,-0.095215,0.207031,104,118,52,179
20.270,15:19:39.270,-10.55957,-0.003906,-0.564453,-0.138184,-0.182861,-0.17749,0.,0.,0.,2.567627,0.047363,-0.056885,0.207031,103,119,56,296
20.370,15:19:39.370,-9.411133,0.532227,-0.441406,-0.181885,0.149902,-2.75293,0.,0.,0.,2.548828,-0.098633,-0.011475,0.207031,103,66,57,219
20.470,15:19:39.470,-8.893555,-0.327148,-1.367188,-0.125488,0.329834,-0.914062,0.,0.,0.,2.533447,-0.219238,0.001465,0.207031,104,49,54,104
20.570,15:19:39.570,-8.458008,0.731445,-2.745117,-0.189209,1.038574,-1.081055,0.,0.,0.,2.518555,0.222656,0.042725,0.289062,109,118,124,97
20.670,15:19:39.670,-8.458008,0.731445,-2.745117,-0.189209,1.038574,-1.081055,0.,0.,0.,2.518555,0.222656,0.042725,0.289062,109,118,124,97
20.770,15:19:39.770,-8.458008,0.731445,-2.745117,-0.189209,1.038574,-1.081055,0.,0.,0.,2.518555,0.222656,0.042725,0.289062,109,118,124,97
20.870,15:19:39.870,-8.487305,-0.161133,-0.056641,-0.014893,0.11792,-0.627686,0.,0.,0.,2.531006,0.149658,0.171631,0.308594,112,135,55,96
20.970,15:19:39.970,-7.558594,-0.969727,-0.041992,-0.036133,-0.162598,-3.365967,0.,0.,0.,2.528076,0.033936,0.189697,0.296875,115,135,38,204
21.070,15:19:40.070,-9.879883,0.217773,-2.15625,-0.108398,0.074463,-0.694824,0.,0.,0.,2.5271,-0.186279,0.147217,0.253906,119,136,53,277
21.170,15:19:40.170,-11.785156,1.178711,0.313477,-0.370117,-1.637695,0.064697,0.,0.,0.,2.526611,-0.274658,0.074951,0.203125,122,137,74,162
21.270,15:19:40.270,-10.904297,0.013672,0.293945,-0.285156,-0.369141,-0.261719,0.,0.,0.,2.514893,-0.278076,-0.009033,0.203125,123,121,122,86
21.370,15:19:40.370,-10.057617,-0.398438,-1.5,0.029785,-0.697998,0.491455,0.,0.,0.,2.506104,0.201904,0.154541,0.203125,125,48,105,79
21.470,15:19:40.470,-10.057617,-0.398438,-1.5,0.029785,-0.697998,0.491455,0.,0.,0.,2.506104,0.201904,0.154541,0.203125,125,48,105,79
21.570,15:19:40.570,-10.110352,-0.570312,1.400391,0.067871,0.02002,0.167969,0.,0.,0.,2.513672,0.250977,0.146973,0.203125,126,81,52,79
21.670,15:19:40.670,-10.110352,-0.570312,1.400391,0.067871,0.02002,0.167969,0.,0.,0.,2.513672,0.250977,0.146973,0.203125,126,81,52,79
21.770,15:19:40.770,-10.679688,-0.655273,0.474609,0.122314,-0.181885,-0.32666,0.,0.,0.,2.520264,0.101318,0.099609,0.203125,123,132,57,79
21.870,15:19:40.870,-10.679688,-0.655273,0.474609,0.122314,-0.181885,-0.32666,0.,0.,0.,2.520264,0.101318,0.099609,0.203125,123,132,57,79
21.970,15:19:40.970,-10.775391,-0.432617,1.695312,0.030762,-0.241455,-2.96582,0.,0.,0.,2.522461,-0.006592,0.088135,0.203125,121,135,55,81
22.070,15:19:41.070,-10.564453,-0.384766,0.179688,-0.049805,0.045654,-0.573486,0.,0.,0.,2.52417,-0.200684,0.07959,0.203125,120,135,54,83
22.170,15:19:41.170,-10.554688,0.575195,0.066406,-0.106201,-0.054199,0.984375,0.,0.,0.,2.522461,-0.24707,0.06543,0.203125,118,135,87,86
22.270,15:19:41.270,-10.31543,0.408203,0.678711,-0.0979,-0.047852,-0.02124,0.,0.,0.,2.519531,-0.177979,0.048096,0.203125,112,102,137,90
22.370,15:19:41.370,-10.143555,0.631836,1.875977,-0.143555,-0.162598,3.736328,0.,0.,0.,2.524658,0.005371,0.040771,0.203125,108,53,136,94
22.470,15:19:41.470,-10.201172,1.578125,0.161133,0.056396,0.149902,1.119385,0.,0.,0.,2.52417,0.166748,0.028076,0.203125,102,54,135,98
22.570,15:19:41.570,-9.233398,-0.555664,0.626953,0.061523,-0.205322,-0.186035,0.,0.,0.,2.528564,0.239502,0.018066,0.203125,98,56,100,104
22.670,15:19:41.670,-9.72168,0.217773,0.583984,0.106201,-0.052979,-0.052002,0.,0.,0.,2.537842,0.247559,0.016602,0.203125,93,90,49,131
22.770,15:19:41.770,-8.462891,-1.710938,-0.522461,0.052002,-0.973633,-2.347412,0.,0.,0.,2.541016,0.200928,-0.000488,0.203125,90,142,47,208
22.870,15:19:41.870,-10.554688,-0.636719,2.474609,-0.029785,0.250977,-0.57666,0.,0.,0.,2.530762,-0.269775,-0.175293,0.203125,83,150,76,234
22.970,15:19:41.970,-8.879883,0.293945,-0.949219,0.026367,0.05835,-0.278809,0.,0.,0.,2.518799,-0.258057,-0.110352,0.203125,80,102,124,211
23.070,15:19:42.070,-8.879883,0.293945,-0.949219,0.026367,0.05835,-0.278809,0.,0.,0.,2.518799,-0.258057,-0.110352,0.203125,80,102,124,211
23.170,15:19:42.170,-9.655273,-0.166016,1.282227,-0.046631,0.794922,3.605469,0.,0.,0.,2.516357,-0.138184,-0.07373,0.203125,79,71,119,143
23.270,15:19:42.270,-10.483398,-0.046875,-0.080078,-0.012695,0.171143,0.776855,0.,0.,0.,2.516357,0.085938,-0.052734,0.203125,79,126,117,120
23.370,15:19:42.370,-9.755859,0.232422,-0.640625,-0.015869,0.119141,0.00415,0.,0.,0.,2.525391,0.174316,-0.02124,0.203125,79,164,114,117
23.470,15:19:42.470,-10.277344,-0.527344,-0.650391,0.027588,0.186035,0.394775,0.,0.,0.,2.531494,0.167969,-0.000732,0.203125,82,164,113,115
23.570,15:19:42.570,-10.511719,0.018555,-0.388672,0.128662,0.411621,-1.862305,0.,0.,0.,2.533691,0.063232,0.01001,0.203125,85,164,62,110
23.670,15:19:42.670,-10.68457,-0.108398,0.464844,-0.036133,-0.119141,-0.830078,0.,0.,0.,2.537598,-0.007324,0.02832,0.203125,91,162,29,107
23.770,15:19:42.770,-10.310547,1.183594,0.583984,0.048828,0.462891,-1.773926,0.,0.,0.,2.531982,-0.175049,0.054199,0.203125,96,162,77,101
23.870,15:19:42.870,-10.287109,0.237305,-0.246094,-0.054199,0.15625,-0.680908,0.,0.,0.,2.527344,-0.252441,0.061523,0.203125,102,112,109,94
23.970,15:19:42.970,-10.516602,1.625,-0.640625,-0.070068,1.445068,3.170166,0.,0.,0.,2.518799,-0.2229,0.095215,0.203125,108,80,104,87
24.070,15:19:43.070,-9.990234,-0.945312,0.40332,-0.000977,-0.45752,-1.023682,0.,0.,0.,2.517822,0.195801,0.284668,0.203125,120,178,100,75
24.170,15:19:43.170,-10.224609,-0.285156,0.265625,0.123291,0.027588,-0.060547,0.,0.,0.,2.518555,0.09375,0.237305,0.203125,129,172,100,150
24.270,15:19:43.270,-9.640625,0.237305,0.87793,0.115967,-2.029297,-0.638428,0.,0.,0.,2.519287,0.019287,0.148438,0.203125,130,168,101,263
24.370,15:19:43.370,-9.640625,0.237305,0.87793,0.115967,-2.029297,-0.638428,0.,0.,0.,2.519287,0.019287,0.148438,0.203125,130,168,101,263
24.470,15:19:43.470,-9.511719,-0.532227,0.436523,-0.032959,-0.019043,0.130859,0.,0.,0.,2.522949,-0.013184,-0.014404,0.203125,132,178,99,261
24.570,15:19:43.570,-9.511719,-0.532227,0.436523,-0.032959,-0.019043,0.130859,0.,0.,0.,2.522949,-0.013184,-0.014404,0.203125,132,178,99,261
24.670,15:19:43.670,-9.822266,0.146484,0.854492,-0.012695,0.435059,-0.458496,0.,0.,0.,2.522217,-0.035889,0.007812,0.203125,131,180,93,70
24.770,15:19:43.770,-9.822266,0.146484,0.854492,-0.012695,0.435059,-0.458496,0.,0.,0.,2.522217,-0.035889,0.007812,0.203125,131,180,93,70
24.870,15:19:43.870,-9.051758,0.12793,-0.977539,-0.026367,0.166016,-0.145752,0.,0.,0.,2.522217,-0.045166,0.02124,0.203125,130,183,91,146
24.970,15:19:43.970,-9.535156,-0.575195,-0.911133,-0.02124,0.332031,0.018066,0.,0.,0.,2.522949,-0.050537,0.036377,0.234375,129,185,89,262
25.070,15:19:44.070,-9.46875,-0.217773,-0.003906,-0.018066,0.128662,-0.031738,0.,0.,0.,2.521484,-0.060303,0.083008,0.230469,129,187,88,186
25.170,15:19:44.170,-9.46875,-0.217773,-0.003906,-0.018066,0.128662,-0.031738,0.,0.,0.,2.521484,-0.060303,0.083008,0.230469,129,187,88,186
25.270,15:19:44.270,-9.46875,-0.217773,-0.003906,-0.018066,0.128662,-0.031738,0.,0.,0.,2.521484,-0.060303,0.083008,0.230469,129,187,88,186
25.370,15:19:44.370,-9.46875,-0.217773,-0.003906,-0.018066,0.128662,-0.031738,0.,0.,0.,2.521484,-0.060303,0.083008,0.230469,129,187,88,186
25.470,15:19:44.470,-10.258789,1.202148,-0.388672,-0.083008,-0.704346,-0.140381,0.,0.,0.,2.518799,-0.044922,-0.090332,0.230469,125,196,84,156
25.570,15:19:44.570,-10.258789,1.202148,-0.388672,-0.083008,-0.704346,-0.140381,0.,0.,0.,2.518799,-0.044922,-0.090332,0.230469,125,196,84,156
25.670,15:19:44.670,-10.737305,0.360352,-1.519531,-0.026367,0.781982,0.006348,0.,0.,0.,2.517822,-0.034424,-0.134521,0.230469,120,195,86,82
25.770,15:19:44.770,-10.737305,0.360352,-1.519531,-0.026367,0.781982,0.006348,0.,0.,0.,2.517822,-0.034424,-0.134521,0.230469,120,195,86,82
25.870,15:19:44.870,-10.737305,0.360352,-1.519531,-0.026367,0.781982,0.006348,0.,0.,0.,2.517822,-0.034424,-0.134521,0.230469,120,195,86,82
25.970,15:19:44.970,-10.110352,0.865234,-0.892578,-0.015869,1.709961,0.176514,0.,0.,0.,2.515625,-0.025879,0.005371,0.230469,114,175,91,90
26.070,15:19:45.070,-10.110352,0.865234,-0.892578,-0.015869,1.709961,0.176514,0.,0.,0.,2.515625,-0.025879,0.005371,0.230469,114,175,91,90
26.170,15:19:45.170,-8.951172,0.679688,0.688477,-0.015869,0.452148,0.009521,0.,0.,0.,2.515869,-0.015625,0.142822,0.230469,112,118,92,93
26.270,15:19:45.270,-8.999023,-0.68457,-0.426758,-0.054199,-0.568115,0.039307,0.,0.,0.,2.515869,-0.01001,0.164307,0.230469,112,133,95,96
26.370,15:19:45.370,-8.999023,-0.68457,-0.426758,-0.054199,-0.568115,0.039307,0.,0.,0.,2.515869,-0.01001,0.164307,0.230469,112,133,95,96
26.470,15:19:45.470,-9.760742,-0.023438,-0.421875,-0.011475,-1.886719,0.070068,0.,0.,0.,2.517334,0.004395,0.019287,0.230469,109,182,101,291
26.570,15:19:45.570,-9.760742,-0.023438,-0.421875,-0.011475,-1.886719,0.070068,0.,0.,0.,2.517334,0.004395,0.019287,0.230469,109,182,101,291
26.670,15:19:45.670,-9.40625,0.056641,-0.801758,-0.039307,0.611816,0.005127,0.,0.,0.,2.518799,0.011719,-0.078369,0.230469,108,179,105,106
26.770,15:19:45.770,-8.999023,-0.146484,-0.379883,-0.005127,0.012695,0.018066,0.,0.,0.,2.519531,0.007812,-0.04541,0.207031,108,179,107,108
26.870,15:19:45.870,-8.999023,-0.146484,-0.379883,-0.005127,0.012695,0.018066,0.,0.,0.,2.519531,0.007812,-0.04541,0.207031,108,179,107,108
26.970,15:19:45.970,-9.353516,-0.370117,-0.72168,-0.039307,1.437744,-0.057373,0.,0.,0.,2.519775,0.010742,0.059082,0.203125,101,140,110,110
27.070,15:19:46.070,-8.482422,-0.489258,-0.806641,0.083008,-1.388672,0.80542,0.,0.,0.,2.521729,0.026855,0.114014,0.203125,97,81,114,110
27.170,15:19:46.170,-8.989258,-0.222656,0.089844,0.109375,-0.358398,0.204102,0.,0.,0.,2.525391,0.112061,-0.032471,0.203125,96,79,115,112
27.270,15:19:46.270,-10.057617,-0.446289,0.02832,0.010498,0.112793,0.275391,0.,0.,0.,2.53125,0.14502,-0.070312,0.203125,95,112,118,112
27.370,15:19:46.370,-9.592773,-0.222656,0.693359,0.009521,0.073242,-0.052979,0.,0.,0.,2.540771,0.152588,-0.022217,0.203125,95,163,119,111
27.470,15:19:46.470,-9.703125,-0.137695,0.013672,0.028564,0.532959,-2.9104,0.,0.,0.,2.54248,0.0625,-0.005371,0.203125,97,164,121,148
27.570,15:19:46.570,-10.368164,0.327148,-0.15625,-0.037109,0.055176,-0.47876,0.,0.,0.,2.546143,-0.088379,0.008789,0.203125,98,166,120,259
27.670,15:19:46.670,-10.224609,0.451172,-0.327148,-0.001953,0.32666,0.824707,0.,0.,0.,2.544678,-0.116699,0.031494,0.203125,100,166,119,295
27.770,15:19:46.770,-9.736328,-0.041992,0.161133,-0.05835,0.063721,-0.039307,0.,0.,0.,2.543457,-0.079346,0.039795,0.203125,101,168,117,292
27.870,15:19:46.870,-9.736328,-0.041992,0.161133,-0.05835,0.063721,-0.039307,0.,0.,0.,2.543457,-0.079346,0.039795,0.203125,101,168,117,292
27.970,15:19:46.970,-10.392578,-0.208984,0.935547,-0.000977,0.087158,0.11377,0.,0.,0.,2.544678,-0.048584,0.05127,0.203125,104,168,116,251
28.070,15:19:47.070,-9.750977,0.099609,0.151367,-0.013672,0.110596,0.032959,0.,0.,0.,2.544678,-0.039551,0.055176,0.203125,108,169,114,93
28.170,15:19:47.170,-9.544922,0.089844,-1.614258,-0.029785,0.043457,-0.048828,0.,0.,0.,2.544189,-0.037842,0.0625,0.203125,110,169,114,90
28.270,15:19:47.270,-10.339844,1.22168,-2.194336,0.008301,1.353516,0.044678,0.,0.,0.,2.544189,-0.033203,0.09375,0.203125,113,117,114,88
28.370,15:19:47.370,-9.947266,-0.094727,-0.051758,-0.018066,0.293701,-0.016846,0.,0.,0.,2.544189,-0.02832,0.217529,0.203125,116,83,115,85
28.470,15:19:47.470,-9.487305,-0.142578,-0.816406,0.044678,-0.47876,1.889893,0.,0.,0.,2.549316,0.030762,0.237549,0.203125,120,134,116,121
28.570,15:19:47.570,-9.861328,-0.332031,-0.194336,0.054199,0.030762,0.328613,0.,0.,0.,2.550781,0.142822,0.176025,0.203125,122,168,117,232
28.670,15:19:47.670,-9.176758,0.289062,-1.182617,0.179688,-2.401855,-2.838135,0.,0.,0.,2.544922,0.068115,0.07373,0.203125,125,116,118,269
28.770,15:19:47.770,-9.770508,0.265625,0.161133,-0.040283,-0.594727,-0.895996,0.,0.,0.,2.550293,-0.063721,-0.021484,0.214844,126,82,117,269
28.870,15:19:47.870,-9.851562,0.194336,0.949219,0.036133,0.218018,0.749023,0.,0.,0.,2.556396,0.087158,-0.013428,0.238281,126,84,114,83
28.970,15:19:47.970,-9.851562,0.194336,0.949219,0.036133,0.218018,0.749023,0.,0.,0.,2.556396,0.087158,-0.013428,0.238281,126,84,114,83
29.070,15:19:48.070,-9.650391,-0.02832,-0.626953,0.007324,-0.075439,-0.818359,0.,0.,0.,2.561768,0.131348,0.004395,0.234375,123,135,113,84
29.170,15:19:48.170,-9.861328,0.066406,1.9375,0.023193,0.109375,-0.21582,0.,0.,0.,2.566895,0.073975,0.030029,0.226562,123,170,111,86
29.270,15:19:48.270,-10.463867,-1.37793,-0.474609,0.067871,1.318359,-1.741943,0.,0.,0.,2.569092,0.008545,0.05542,0.199219,124,172,110,85
29.370,15:19:48.370,-9.904297,-0.175781,-0.413086,0.041504,0.376709,-0.441406,0.,0.,0.,2.568848,-0.14917,0.17041,0.199219,124,174,105,85
29.470,15:19:48.470,-10.181641,0.427734,1.728516,-0.071289,-0.389404,0.434082,0.,0.,0.,2.56543,-0.185547,0.189697,0.199219,125,128,103,160
29.570,15:19:48.570,-10.076172,0.066406,-1.31543,-0.142578,-0.038086,-0.007324,0.,0.,0.,2.564453,-0.130371,0.134521,0.199219,125,115,99,273
29.670,15:19:48.670,-9.411133,0.204102,-0.051758,-0.155273,-2.030273,2.126221,0.,0.,0.,2.568604,-0.033447,0.052002,0.199219,125,168,96,273
29.770,15:19:48.770,-10.181641,1.135742,-0.255859,0.007324,-0.318115,0.446777,0.,0.,0.,2.567627,0.070068,-0.047363,0.199219,123,186,93,275
29.870,15:19:48.870,-10.181641,1.135742,-0.255859,0.007324,-0.318115,0.446777,0.,0.,0.,2.567627,0.070068,-0.047363,0.199219,123,186,93,275
29.970,15:19:48.970,-10.301758,0.636719,1.015625,0.083984,0.703369,-2.818848,0.,0.,0.,2.566406,-0.021973,-0.055908,0.199219,122,186,92,201
30.070,15:19:49.070,-9.076172,-0.113281,0.688477,-0.049805,0.333984,0.906494,0.,0.,0.,2.563232,-0.133545,0.019531,0.199219,115,187,92,92
30.170,15:19:49.170,-9.995117,-0.46582,-0.77832,-0.04248,0.70752,0.116943,0.,0.,0.,2.557617,-0.084961,0.044922,0.199219,115,122,92,95
30.270,15:19:49.270,-9.995117,-0.46582,-0.77832,-0.04248,0.70752,0.116943,0.,0.,0.,2.557617,-0.084961,0.044922,0.199219,115,122,92,95
30.370,15:19:49.370,-9.243164,0.142578,-0.697266,-0.025391,0.252197,0.026367,0.,0.,0.,2.556641,-0.04834,0.13623,0.210938,114,120,95,96
30.470,15:19:49.470,-9.243164,0.142578,-0.697266,-0.025391,0.252197,0.026367,0.,0.,0.,2.556641,-0.04834,0.13623,0.210938,114,120,95,96
30.570,15:19:49.570,-9.482422,0.617188,1.571289,-0.008301,-1.731445,0.130859,0.,0.,0.,2.556152,-0.008789,0.042969,0.210938,113,173,105,177
30.670,15:19:49.670,-9.482422,0.617188,1.571289,-0.008301,-1.731445,0.130859,0.,0.,0.,2.556152,-0.008789,0.042969,0.210938,113,173,105,177
30.770,15:19:49.770,-9.482422,0.617188,1.571289,-0.008301,-1.731445,0.130859,0.,0.,0.,2.556152,-0.008789,0.042969,0.210938,113,173,105,177
30.870,15:19:49.870,-9.02832,-0.213867,0.174805,-0.040283,-0.260498,-0.103027,0.,0.,0.,2.555908,0.010254,-0.046875,0.210938,110,170,112,101
30.970,15:19:49.970,-9.717773,1.230469,-0.046875,0.030762,-0.439453,-0.056396,0.,0.,0.,2.559814,0.04541,0.095215,0.210938,104,90,124,105
31.070,15:19:50.070,-9.693359,0.285156,-0.592773,-0.014893,-0.054199,-0.171143,0.,0.,0.,2.560791,0.050293,0.07251,0.210938,99,87,129,105
31.170,15:19:50.170,-9.693359,0.285156,-0.592773,-0.014893,-0.054199,-0.171143,0.,0.,0.,2.560791,0.050293,0.07251,0.210938,99,87,129,105
31.270,15:19:50.270,-10.071289,0.303711,0.375,0.051025,0.171143,-0.571289,0.,0.,0.,2.583252,-0.046631,-0.060303,0.210938,88,144,48,117
31.370,15:19:50.370,-10.071289,0.303711,0.375,0.051025,0.171143,-0.571289,0.,0.,0.,2.583252,-0.046631,-0.060303,0.210938,88,144,48,117
31.470,15:19:50.470,-9.961914,0.071289,-0.40332,0.065918,0.49585,-1.505615,0.,0.,0.,2.57959,-0.174561,-0.045898,0.210938,87,142,86,115
31.570,15:19:50.570,-9.961914,0.071289,-0.40332,0.065918,0.49585,-1.505615,0.,0.,0.,2.57959,-0.174561,-0.045898,0.210938,87,142,86,115
31.670,15:19:50.670,-10.133789,1.268555,-0.801758,-0.063721,0.056396,-0.513916,0.,0.,0.,2.576172,-0.253418,-0.026611,0.210938,88,108,143,115
31.770,15:19:50.770,-10.133789,1.268555,-0.801758,-0.063721,0.056396,-0.513916,0.,0.,0.,2.576172,-0.253418,-0.026611,0.210938,88,108,143,115
31.870,15:19:50.870,-10.128906,-0.560547,2.40332,-0.099854,0.425537,3.863037,0.,0.,0.,2.57251,-0.122803,0.,0.210938,89,58,143,112
31.970,15:19:50.970,-9.832031,-0.075195,0.,0.,0.357422,1.206787,0.,0.,0.,2.572754,0.049561,0.003906,0.210938,92,56,144,111
32.070,15:19:51.070,-10.258789,-0.217773,-0.370117,-0.019043,0.077637,0.783203,0.,0.,0.,2.579834,0.188477,0.026855,0.210938,95,53,146,106
32.170,15:19:51.170,-9.750977,-0.179688,0.683594,0.056396,0.031738,0.308594,0.,0.,0.,2.5896,0.24292,0.045654,0.210938,98,83,151,102
32.270,15:19:51.270,-10.488281,-0.408203,0.493164,0.080811,0.255371,-0.803467,0.,0.,0.,2.598389,0.236572,0.047607,0.210938,102,128,117,96
32.370,15:19:51.370,-10.564453,-0.232422,-0.536133,0.088135,0.093506,-0.549072,0.,0.,0.,2.604248,0.100098,0.06543,0.210938,108,126,66,93
32.470,15:19:51.470,-10.626953,-0.260742,-0.740234,0.120117,1.368408,-2.810547,0.,0.,0.,2.608887,0.004883,0.097656,0.210938,112,123,64,87
32.570,15:19:51.570,-10.166992,-0.080078,0.350586,0.110596,0.468018,-0.697021,0.,0.,0.,2.604736,-0.201172,0.240234,0.210938,118,123,62,84
32.670,15:19:51.670,-9.396484,0.175781,0.056641,-0.157471,-0.333008,0.246826,0.,0.,0.,2.597168,-0.271484,0.261719,0.210938,123,125,97,78
32.770,15:19:51.770,-10.818359,0.293945,0.265625,-0.233887,-0.012695,-0.111572,0.,0.,0.,2.592529,-0.24585,0.205566,0.210938,129,85,151,113
32.870,15:19:51.870,-10.420898,0.34668,-0.388672,0.594727,-3.339355,0.07959,0.,0.,0.,2.583496,0.230713,-0.010498,0.210938,63,131,100,111
32.970,15:19:51.970,-9.477539,0.132812,-1.34375,0.316895,-0.90332,-0.318115,0.,0.,0.,2.598389,0.250732,-0.15332,0.210938,114,126,68,73
33.070,15:19:52.070,-9.770508,0.665039,2.279297,0.272217,4.578125,-4.069336,0.,0.,0.,2.618408,-0.026611,0.043945,0.203125,131,124,63,73
33.170,15:19:52.170,-10.833008,0.631836,-1.035156,0.149902,0.887451,-1.499268,0.,0.,0.,2.624512,-0.217529,0.226807,0.199219,128,124,60,74
33.270,15:19:52.270,-9.330078,0.061523,1.068359,-0.107422,-0.908691,0.720459,0.,0.,0.,2.614746,-0.272705,0.298096,0.226562,127,124,114,75
33.370,15:19:52.370,-9.330078,0.061523,1.068359,-0.107422,-0.908691,0.720459,0.,0.,0.,2.614746,-0.272705,0.298096,0.226562,127,124,114,75
33.470,15:19:52.470,-8.693359,-0.066406,-0.365234,-0.269043,-0.104248,0.301025,0.,0.,0.,2.618652,-0.212646,0.195557,0.25,125,67,150,115
33.570,15:19:52.570,-8.693359,-0.066406,-0.365234,-0.269043,-0.104248,0.301025,0.,0.,0.,2.618652,-0.212646,0.195557,0.25,125,67,150,115
33.670,15:19:52.670,-9.19043,1.696289,-0.151367,-0.090332,-0.700195,3.496826,0.,0.,0.,2.621094,-0.096191,0.141602,0.25,124,30,150,235
33.770,15:19:52.770,-10.790039,0.845703,-0.375,-0.005127,-0.256348,0.682129,0.,0.,0.,2.621094,0.150879,0.100586,0.238281,121,30,151,277
33.870,15:19:52.870,-10.790039,0.845703,-0.375,-0.005127,-0.256348,0.682129,0.,0.,0.,2.621094,0.150879,0.100586,0.238281,121,30,151,277
33.970,15:19:52.970,-10.40625,-1.207031,1.680664,0.274414,-0.263916,0.123291,0.,0.,0.,2.630371,0.253662,-0.098389,0.214844,107,85,61,209
34.070,15:19:53.070,-10.55957,0.755859,-1.262695,0.17334,0.509521,-4.691895,0.,0.,0.,2.629395,0.0271,-0.125488,0.210938,102,123,61,102
34.170,15:19:53.170,-10.780273,-1.112305,-0.87793,-0.022217,-0.193604,-1.662109,0.,0.,0.,2.635254,-0.192139,-0.091797,0.203125,95,123,61,105
34.270,15:19:53.270,-10.214844,-0.018555,0.536133,-0.077637,0.174316,1.239746,0.,0.,0.,2.631836,-0.204346,-0.062744,0.203125,92,124,115,110
34.370,15:19:53.370,-10.234375,0.298828,0.693359,-0.043457,0.36377,0.55542,0.,0.,0.,2.630615,-0.169434,-0.063721,0.207031,88,78,152,112
34.470,15:19:53.470,-10.296875,0.503906,2.194336,-0.043457,0.105225,1.833496,0.,0.,0.,2.629883,-0.101074,-0.05835,0.214844,86,48,150,115
34.570,15:19:53.570,-10.253906,-0.432617,0.289062,-0.010498,-0.169189,0.710693,0.,0.,0.,2.634766,0.154785,-0.042236,0.21875,84,93,132,115
34.670,15:19:53.670,-9.665039,-0.613281,-0.293945,0.023193,0.11792,0.056396,0.,0.,0.,2.64502,0.231689,-0.03125,0.226562,84,122,81,117
34.770,15:19:53.770,-9.444336,0.950195,-0.588867,0.090332,0.191406,0.164795,0.,0.,0.,2.650635,0.182861,-0.02002,0.242188,84,119,57,115
34.870,15:19:53.870,-9.444336,0.950195,-0.588867,0.090332,0.191406,0.164795,0.,0.,0.,2.650635,0.182861,-0.02002,0.242188,84,119,57,115
34.970,15:19:53.970,-10.282227,-0.874023,0.678711,-0.055176,0.054199,-1.070557,0.,0.,0.,2.653809,-0.18042,0.010742,0.246094,89,116,39,110
35.070,15:19:54.070,-10.282227,-0.874023,0.678711,-0.055176,0.054199,-1.070557,0.,0.,0.,2.653809,-0.18042,0.010742,0.246094,89,116,39,110
35.170,15:19:54.170,-9.717773,-0.731445,-0.792969,-0.192383,0.247803,2.631592,0.,0.,0.,2.634521,-0.121826,0.065918,0.253906,102,57,143,96
35.270,15:19:54.270,-10.445312,0.194336,-0.417969,-0.067871,0.3479,1.182129,0.,0.,0.,2.63208,-0.003418,0.076904,0.234375,107,97,145,92
35.370,15:19:54.370,-11.708984,0.360352,-0.459961,-0.11377,0.965088,0.926758,0.,0.,0.,2.632324,0.063965,0.095215,0.210938,113,108,96,88
35.470,15:19:54.470,-11.708984,0.360352,-0.459961,-0.11377,0.965088,0.926758,0.,0.,0.,2.632324,0.063965,0.095215,0.210938,113,108,96,88
35.570,15:19:54.570,-10.37793,0.802734,0.55957,-0.169189,0.407471,0.285156,0.,0.,0.,2.637451,0.207031,0.234619,0.207031,117,99,101,173
35.670,15:19:54.670,-10.37793,0.802734,0.55957,-0.169189,0.407471,0.285156,0.,0.,0.,2.637451,0.207031,0.234619,0.207031,117,99,101,173
35.770,15:19:54.770,-10.37793,0.802734,0.55957,-0.169189,0.407471,0.285156,0.,0.,0.,2.637451,0.207031,0.234619,0.207031,117,99,101,173
35.870,15:19:54.870,-9.506836,1.011719,-0.697266,-0.078613,-0.155273,0.208496,0.,0.,0.,2.619629,0.098389,0.0354,0.289062,128,79,197,131
35.970,15:19:54.970,-9.501953,-0.12793,-1.329102,-0.037109,-0.019043,-0.753418,0.,0.,0.,2.623535,0.187012,0.042969,0.296875,128,77,200,71
36.070,15:19:55.070,-9.305664,-0.113281,-0.522461,0.019043,0.083984,0.365967,0.,0.,0.,2.626465,0.149414,0.048584,0.3125,129,75,199,70
36.170,15:19:55.170,-9.84668,0.736328,-0.55957,-0.121094,2.386963,-0.501221,0.,0.,0.,2.626465,0.097168,0.146484,0.316406,130,73,195,70
36.270,15:19:55.270,-9.84668,0.736328,-0.55957,-0.121094,2.386963,-0.501221,0.,0.,0.,2.626465,0.097168,0.146484,0.316406,130,73,195,70
36.370,15:19:55.370,-9.84668,0.736328,-0.55957,-0.121094,2.386963,-0.501221,0.,0.,0.,2.626465,0.097168,0.146484,0.316406,130,73,195,70
36.470,15:19:55.470,-9.587891,-0.232422,-0.313477,-0.000977,-1.273682,-0.213867,0.,0.,0.,2.624023,0.059082,0.221191,0.320312,133,71,110,69
36.570,15:19:55.570,-9.726562,-0.603516,0.583984,-0.022217,0.070068,-0.125488,0.,0.,0.,2.624268,0.049316,0.172607,0.3125,134,72,108,112
36.670,15:19:55.670,-10.004883,0.907227,-0.099609,0.039307,-1.047119,-0.174316,0.,0.,0.,2.624512,0.042969,0.122559,0.308594,134,74,106,142
36.770,15:19:55.770,-10.823242,0.099609,-0.469727,-0.015869,-0.74585,-0.268066,0.,0.,0.,2.627441,0.005615,-0.049805,0.277344,132,79,195,149
36.870,15:19:55.870,-9.889648,0.503906,-0.768555,0.,-0.128662,-0.138184,0.,0.,0.,2.628906,-0.013184,-0.077148,0.277344,130,83,191,104
36.970,15:19:55.970,-10.110352,0.118164,0.839844,-0.003174,0.881104,-0.115967,0.,0.,0.,2.62793,-0.020996,-0.063965,0.277344,128,86,185,74
37.070,15:19:56.070,-9.875,0.432617,1.058594,0.022217,0.075439,0.061523,0.,0.,0.,2.62915,-0.030273,-0.012451,0.277344,127,92,182,75
37.170,15:19:56.170,-9.894531,-1.487305,1.086914,0.029785,2.422119,-0.259521,0.,0.,0.,2.626953,-0.040283,0.100586,0.273438,128,95,179,76
37.270,15:19:56.270,-10.344727,-1.154297,-0.118164,-0.033936,0.397949,-0.069092,0.,0.,0.,2.628662,-0.051758,0.20166,0.277344,129,101,176,76
37.370,15:19:56.370,-9.693359,-0.289062,0.455078,-0.048828,-1.138672,-0.233887,0.,0.,0.,2.628662,-0.061279,0.195068,0.289062,130,103,172,114
37.470,15:19:56.470,-9.693359,-0.289062,0.455078,-0.048828,-1.138672,-0.233887,0.,0.,0.,2.628662,-0.061279,0.195068,0.289062,130,103,172,114
37.570,15:19:56.570,-10.402344,0.921875,0.626953,-0.030762,0.077637,-0.061523,0.,0.,0.,2.629395,-0.0625,0.155029,0.296875,130,108,169,228
37.670,15:19:56.670,-10.296875,-1.173828,1.917969,-0.11377,-0.86084,0.011475,0.,0.,0.,2.630859,-0.062744,-0.068604,0.308594,127,114,163,250
37.770,15:19:56.770,-10.296875,-1.173828,1.917969,-0.11377,-0.86084,0.011475,0.,0.,0.,2.630859,-0.062744,-0.068604,0.308594,127,114,163,250
37.870,15:19:56.870,-10.463867,0.161133,0.977539,-0.036133,0.144531,0.056396,0.,0.,0.,2.62915,-0.062988,-0.097168,0.3125,124,116,161,214
37.970,15:19:56.970,-9.746094,-0.023438,1.305664,-0.023193,0.224365,-0.1521,0.,0.,0.,2.626465,-0.05835,-0.035645,0.3125,122,119,158,117
38.070,15:19:57.070,-9.540039,-0.34668,-0.617188,0.011475,0.701172,-0.029785,0.,0.,0.,2.627441,-0.050293,-0.009033,0.308594,119,120,157,85
38.170,15:19:57.170,-10.047852,-0.446289,-0.53125,-0.04248,0.001953,0.154297,0.,0.,0.,2.627197,-0.053223,0.012207,0.304688,120,122,103,88
38.270,15:19:57.270,-10.066406,-0.688477,-0.179688,0.007324,1.56543,0.09668,0.,0.,0.,2.624756,-0.045654,0.088623,0.304688,123,120,68,89
38.370,15:19:57.370,-9.789062,-0.494141,-1.163086,-0.031738,0.23291,0.028564,0.,0.,0.,2.625732,-0.034424,0.167969,0.304688,122,120,68,89
38.470,15:19:57.470,-9.673828,0.550781,0.199219,-0.052002,-0.773438,-2.141113,0.,0.,0.,2.621582,-0.147705,0.153564,0.304688,118,118,68,121
38.570,15:19:57.570,-9.358398,0.066406,0.451172,-0.175537,-0.210693,-0.766113,0.,0.,0.,2.616455,-0.229004,0.118652,0.3125,116,117,124,217
38.670,15:19:57.670,-9.40625,1.549805,-0.303711,-0.199951,-0.717041,1.604736,0.,0.,0.,2.613281,-0.243408,0.086182,0.320312,113,114,162,249
38.770,15:19:57.770,-10.689453,-0.232422,1.210938,-0.161621,-0.575684,0.818359,0.,0.,0.,2.617676,-0.030762,-0.043701,0.320312,111,112,165,252
38.870,15:19:57.870,-10.689453,-0.232422,1.210938,-0.161621,-0.575684,0.818359,0.,0.,0.,2.617676,-0.030762,-0.043701,0.320312,111,112,165,252
38.970,15:19:57.970,-9.386719,0.769531,-0.740234,-0.037109,-0.171143,-0.928955,0.,0.,0.,2.618652,-0.059326,-0.014648,0.304688,94,78,106,104
39.070,15:19:58.070,-9.386719,0.769531,-0.740234,-0.037109,-0.171143,-0.928955,0.,0.,0.,2.618652,-0.059326,-0.014648,0.304688,94,78,106,104
39.170,15:19:58.170,-9.746094,-0.237305,1.671875,-0.054199,0.05835,0.105225,0.,0.,0.,2.614746,0.023682,0.007812,0.320312,98,67,204,127
39.270,15:19:58.270,-9.746094,-0.237305,1.671875,-0.054199,0.05835,0.105225,0.,0.,0.,2.614746,0.023682,0.007812,0.320312,98,67,204,127
39.370,15:19:58.370,-9.884766,-0.008789,-0.174805,0.007324,0.148926,0.174316,0.,0.,0.,2.615967,0.041016,0.019043,0.328125,101,65,207,165
39.470,15:19:58.470,-9.884766,-0.008789,-0.174805,0.007324,0.148926,0.174316,0.,0.,0.,2.615967,0.041016,0.019043,0.328125,101,65,207,165
39.570,15:19:58.570,-9.693359,-0.227539,1.405273,-0.052002,0.109375,-0.102051,0.,0.,0.,2.617188,0.046631,0.049561,0.34375,110,59,212,87
39.670,15:19:58.670,-10.392578,0.827148,-1.295898,-0.056396,1.392822,0.015869,0.,0.,0.,2.61792,0.050781,0.091553,0.347656,117,56,215,84
39.770,15:19:58.770,-10.,-0.166016,-0.212891,-0.010498,0.213867,-0.019043,0.,0.,0.,2.616699,0.050781,0.238037,0.351562,126,55,203,100
39.870,15:19:58.870,-10.,-0.166016,-0.212891,-0.010498,0.213867,-0.019043,0.,0.,0.,2.616699,0.050781,0.238037,0.351562,126,55,203,100
39.970,15:19:58.970,-9.612305,-0.712891,-0.336914,-0.007324,0.146729,0.007324,0.,0.,0.,2.617188,0.057373,0.227783,0.351562,130,55,149,132
40.070,15:19:59.070,-9.612305,-0.712891,-0.336914,-0.007324,0.146729,0.007324,0.,0.,0.,2.617188,0.057373,0.227783,0.351562,130,55,149,132
40.170,15:19:59.170,-10.009766,1.549805,-1.823242,0.095703,-2.814697,-0.182861,0.,0.,0.,2.616699,0.041748,0.11377,0.347656,136,55,130,127
40.270,15:19:59.270,-10.009766,1.549805,-1.823242,0.095703,-2.814697,-0.182861,0.,0.,0.,2.616699,0.041748,0.11377,0.347656,136,55,130,127
40.370,15:19:59.370,-9.841797,-0.356445,-0.526367,-0.006348,-0.38501,-0.307373,0.,0.,0.,2.615723,0.0354,-0.008545,0.339844,139,55,129,125
40.470,15:19:59.470,-9.841797,-0.356445,-0.526367,-0.006348,-0.38501,-0.307373,0.,0.,0.,2.615723,0.0354,-0.008545,0.339844,139,55,129,125
40.570,15:19:59.570,-9.841797,-0.356445,-0.526367,-0.006348,-0.38501,-0.307373,0.,0.,0.,2.615723,0.0354,-0.008545,0.339844,139,55,129,125
40.670,15:19:59.670,-9.841797,-0.356445,-0.526367,-0.006348,-0.38501,-0.307373,0.,0.,0.,2.615723,0.0354,-0.008545,0.339844,139,55,129,125
40.770,15:19:59.770,-9.841797,-0.356445,-0.526367,-0.006348,-0.38501,-0.307373,0.,0.,0.,2.615723,0.0354,-0.008545,0.339844,139,55,129,125
40.870,15:19:59.870,-9.841797,-0.356445,-0.526367,-0.006348,-0.38501,-0.307373,0.,0.,0.,2.615723,0.0354,-0.008545,0.339844,139,55,129,125
40.970,15:19:59.970,-9.879883,0.033203,1.291016,-0.028564,0.212646,-0.083008,0.,0.,0.,2.608154,0.003906,0.026855,0.335938,147,64,121,125
41.070,15:20:0.070,-8.889648,-0.313477,0.754883,-0.022217,0.193604,-0.00415,0.,0.,0.,2.606689,-0.005371,0.032227,0.335938,150,66,138,145
41.170,15:20:0.170,-9.439453,0.18457,0.569336,-0.045654,0.033936,0.033936,0.,0.,0.,2.604736,-0.018799,0.04126,0.339844,154,67,189,159
41.270,15:20:0.270,-9.008789,-0.255859,0.132812,-0.038086,-0.025391,-0.041504,0.,0.,0.,2.603027,-0.015869,0.044922,0.347656,164,73,201,222
41.370,15:20:0.370,-9.37793,-0.408203,0.023438,-0.044678,-0.052002,-0.1521,0.,0.,0.,2.602539,-0.018555,0.046143,0.335938,168,77,198,166
41.470,15:20:0.470,-9.37793,-0.408203,0.023438,-0.044678,-0.052002,-0.1521,0.,0.,0.,2.602539,-0.018555,0.046143,0.335938,168,77,198,166
41.570,15:20:0.570,-10.014648,-0.855469,-0.227539,-0.073242,0.032959,-0.052002,0.,0.,0.,2.599609,-0.022217,0.049561,0.347656,172,79,195,130
41.670,15:20:0.670,-10.402344,0.356445,1.733398,-0.038086,0.044678,-0.056396,0.,0.,0.,2.589111,-0.037842,0.049561,0.347656,183,84,192,168
41.770,15:20:0.770,-10.402344,0.356445,1.733398,-0.038086,0.044678,-0.056396,0.,0.,0.,2.589111,-0.037842,0.049561,0.347656,183,84,192,168
41.870,15:20:0.870,-10.387695,0.379883,0.849609,-0.033936,0.139404,-0.067871,0.,0.,0.,2.578613,-0.033691,0.055664,0.355469,197,89,183,108
41.970,15:20:0.970,-10.368164,0.15625,1.206055,-0.072266,0.134033,-0.016846,0.,0.,0.,2.574463,-0.028809,0.078125,0.347656,203,90,181,121
42.070,15:20:1.070,-9.975586,-0.59375,-1.257812,-0.078613,0.184082,0.098877,0.,0.,0.,2.570068,-0.024902,0.088623,0.347656,207,93,180,166
42.170,15:20:1.170,-9.975586,-0.59375,-1.257812,-0.078613,0.184082,0.098877,0.,0.,0.,2.570068,-0.024902,0.088623,0.347656,207,93,180,166
42.270,15:20:1.270,-9.879883,-0.260742,0.02832,-0.069092,-0.792725,-0.0979,0.,0.,0.,2.558594,-0.023926,0.073975,0.347656,217,92,178,175
42.370,15:20:1.370,-9.879883,-0.260742,0.02832,-0.069092,-0.792725,-0.0979,0.,0.,0.,2.558594,-0.023926,0.073975,0.347656,217,92,178,175
42.470,15:20:1.470,-9.444336,-0.545898,-0.275391,-0.077637,-0.061523,-0.074463,0.,0.,0.,2.555176,-0.019287,0.02832,0.351562,223,92,178,174
42.570,15:20:1.570,-9.444336,-0.545898,-0.275391,-0.077637,-0.061523,-0.074463,0.,0.,0.,2.555176,-0.019287,0.02832,0.351562,223,92,178,174
42.670,15:20:1.670,-9.444336,-0.545898,-0.275391,-0.077637,-0.061523,-0.074463,0.,0.,0.,2.555176,-0.019287,0.02832,0.351562,223,92,178,174
42.770,15:20:1.770,-9.770508,0.094727,-0.370117,-0.067871,0.162598,0.13501,0.,0.,0.,2.530273,-0.012451,0.053711,0.359375,239,94,170,158
42.870,15:20:1.870,-9.770508,0.094727,-0.370117,-0.067871,0.162598,0.13501,0.,0.,0.,2.530273,-0.012451,0.053711,0.359375,239,94,170,158
42.970,15:20:1.970,-10.344727,1.064453,0.768555,-0.073242,0.063721,-0.057373,0.,0.,0.,2.499023,-0.011475,0.057617,0.367188,257,97,167,139
43.070,15:20:2.070,-10.344727,1.064453,0.768555,-0.073242,0.063721,-0.057373,0.,0.,0.,2.499023,-0.011475,0.057617,0.367188,257,97,167,139
43.170,15:20:2.170,-9.056641,0.166016,-0.217773,-0.098877,0.034912,-0.022217,0.,0.,0.,2.48584,-0.010986,0.060791,0.355469,264,98,166,130
43.270,15:20:2.270,-9.056641,0.166016,-0.217773,-0.098877,0.034912,-0.022217,0.,0.,0.,2.48584,-0.010986,0.060791,0.355469,264,98,166,130
43.370,15:20:2.370,-9.683594,0.351562,-0.293945,-0.091309,-0.049805,-0.013672,0.,0.,0.,2.471924,-0.015869,0.060059,0.371094,275,98,165,121
43.470,15:20:2.470,-9.683594,0.351562,-0.293945,-0.091309,-0.049805,-0.013672,0.,0.,0.,2.471924,-0.015869,0.060059,0.371094,275,98,165,121
43.570,15:20:2.570,-9.416016,-0.018555,-1.847656,-0.062744,0.103027,0.124512,0.,0.,0.,2.457275,-0.006104,0.067627,0.378906,285,96,165,107
43.670,15:20:2.670,-9.416016,-0.018555,-1.847656,-0.062744,0.103027,0.124512,0.,0.,0.,2.457275,-0.006104,0.067627,0.378906,285,96,165,107
43.770,15:20:2.770,-9.683594,-0.222656,0.522461,-0.049805,0.214844,0.049805,0.,0.,0.,2.453857,-0.00415,0.081543,0.382812,294,97,165,103
43.870,15:20:2.870,-9.683594,-0.222656,0.522461,-0.049805,0.214844,0.049805,0.,0.,0.,2.453857,-0.00415,0.081543,0.382812,294,97,165,103
43.970,15:20:2.970,-9.554688,-0.555664,-0.507812,-0.091309,0.356445,-0.014893,0.,0.,0.,2.449463,0.000488,0.093994,0.382812,279,98,165,99
44.070,15:20:3.070,-9.554688,-0.555664,-0.507812,-0.091309,0.356445,-0.014893,0.,0.,0.,2.449463,0.000488,0.093994,0.382812,279,98,165,99
44.170,15:20:3.170,-10.44043,0.907227,-1.139648,-0.063721,0.023193,-0.032959,0.,0.,0.,2.446289,0.001465,0.111816,0.382812,257,96,164,97
44.270,15:20:3.270,-10.44043,0.907227,-1.139648,-0.063721,0.023193,-0.032959,0.,0.,0.,2.446289,0.001465,0.111816,0.382812,257,96,164,97
44.370,15:20:3.370,-10.44043,0.907227,-1.139648,-0.063721,0.023193,-0.032959,0.,0.,0.,2.446289,0.001465,0.111816,0.382812,257,96,164,97
44.470,15:20:3.470,-9.688477,0.080078,1.129883,-0.092529,0.088135,-0.052002,0.,0.,0.,2.424805,0.002441,0.111816,0.398438,282,97,150,80
44.570,15:20:3.570,-10.176758,0.166016,-1.257812,-0.090332,-0.061523,-0.0979,0.,0.,0.,2.390137,-0.018555,0.088379,0.363281,243,111,149,81
44.670,15:20:3.670,-10.176758,0.166016,-1.257812,-0.090332,-0.061523,-0.0979,0.,0.,0.,2.390137,-0.018555,0.088379,0.363281,243,111,149,81
44.770,15:20:3.770,-10.196289,0.041992,0.816406,-0.071289,0.023193,-0.04248,0.,0.,0.,2.35498,-0.021484,0.012695,0.414062,215,141,120,102
44.870,15:20:3.870,-10.196289,0.041992,0.816406,-0.071289,0.023193,-0.04248,0.,0.,0.,2.35498,-0.021484,0.012695,0.414062,215,141,120,102
44.970,15:20:3.970,-10.095703,-0.356445,2.231445,-0.089355,0.072266,0.063721,0.,0.,0.,2.350586,-0.013672,0.017822,0.414062,191,141,119,104
45.070,15:20:4.070,-10.095703,-0.356445,2.231445,-0.089355,0.072266,0.063721,0.,0.,0.,2.350586,-0.013672,0.017822,0.414062,191,141,119,104
45.170,15:20:4.170,-10.095703,-0.427734,0.146484,-0.077637,-0.044678,-0.054199,0.,0.,0.,2.34668,-0.01123,0.020752,0.414062,175,142,117,106
45.270,15:20:4.270,-10.095703,-0.427734,0.146484,-0.077637,-0.044678,-0.054199,0.,0.,0.,2.34668,-0.01123,0.020752,0.414062,175,142,117,106
45.370,15:20:4.370,-9.779297,-0.626953,0.279297,-0.084961,0.019043,-0.022217,0.,0.,0.,2.338379,-0.013916,0.020752,0.414062,183,145,115,108
45.470,15:20:4.470,-9.779297,-0.626953,0.279297,-0.084961,0.019043,-0.022217,0.,0.,0.,2.338379,-0.013916,0.020752,0.414062,183,145,115,108
45.570,15:20:4.570,-10.244141,-0.213867,1.481445,-0.077637,0.198975,-0.105225,0.,0.,0.,2.332764,-0.021729,0.021484,0.425781,186,145,114,108
45.670,15:20:4.670,-10.244141,-0.213867,1.481445,-0.077637,0.198975,-0.105225,0.,0.,0.,2.332764,-0.021729,0.021484,0.425781,186,145,114,108
45.770,15:20:4.770,-9.046875,0.132812,-0.451172,-0.081787,-0.008301,-0.000977,0.,0.,0.,2.328369,-0.026367,0.022705,0.433594,189,146,120,106
45.870,15:20:4.870,-9.238281,-0.641602,-0.597656,-0.086182,0.108398,0.169189,0.,0.,0.,2.32373,-0.01416,0.033447,0.429688,175,146,129,105
45.970,15:20:4.970,-9.238281,-0.641602,-0.597656,-0.086182,0.108398,0.169189,0.,0.,0.,2.32373,-0.01416,0.033447,0.429688,175,146,129,105
46.070,15:20:5.070,-10.191406,0.456055,1.053711,-0.070068,0.138184,0.175537,0.,0.,0.,2.319336,-0.006348,0.043213,0.421875,167,147,122,102
46.170,15:20:5.170,-10.191406,0.456055,1.053711,-0.070068,0.138184,0.175537,0.,0.,0.,2.319336,-0.006348,0.043213,0.421875,167,147,122,102
46.270,15:20:5.270,-9.861328,-0.741211,0.612305,-0.055176,0.17749,0.007324,0.,0.,0.,2.317139,-0.002441,0.047119,0.414062,168,147,113,101
46.370,15:20:5.370,-9.861328,-0.741211,0.612305,-0.055176,0.17749,0.007324,0.,0.,0.,2.317139,-0.002441,0.047119,0.414062,168,147,113,101
46.470,15:20:5.470,-10.717773,0.384766,-0.222656,-0.062744,0.016846,-0.086182,0.,0.,0.,2.313721,0.009033,0.064697,0.410156,165,147,110,100
46.570,15:20:5.570,-9.444336,-0.327148,0.650391,-0.067871,0.150879,-0.328613,0.,0.,0.,2.312256,0.004883,0.073975,0.414062,155,148,107,99
46.670,15:20:5.670,-10.071289,1.112305,-0.40332,-0.067871,0.142578,-0.107422,0.,0.,0.,2.305908,-0.029785,0.078613,0.414062,151,151,108,98
46.770,15:20:5.770,-10.071289,1.112305,-0.40332,-0.067871,0.142578,-0.107422,0.,0.,0.,2.305908,-0.029785,0.078613,0.414062,151,151,108,98
46.870,15:20:5.870,-10.798828,0.451172,-0.693359,-0.105225,0.014893,-0.039307,0.,0.,0.,2.300293,-0.041992,0.079346,0.40625,151,156,111,97
46.970,15:20:5.970,-10.798828,0.451172,-0.693359,-0.105225,0.014893,-0.039307,0.,0.,0.,2.300293,-0.041992,0.079346,0.40625,151,156,111,97
47.070,15:20:6.070,-10.114258,-0.179688,-1.466797,-0.159424,-0.033936,-0.185059,0.,0.,0.,2.291504,-0.045898,0.082275,0.398438,153,164,111,97
47.170,15:20:6.170,-10.114258,-0.179688,-1.466797,-0.159424,-0.033936,-0.185059,0.,0.,0.,2.291504,-0.045898,0.082275,0.398438,153,164,111,97
47.270,15:20:6.270,-9.922852,-0.24707,-0.118164,-0.150879,-0.039307,0.233887,0.,0.,0.,2.283936,-0.024414,0.078613,0.40625,160,160,113,96
47.370,15:20:6.370,-9.922852,-0.24707,-0.118164,-0.150879,-0.039307,0.233887,0.,0.,0.,2.283936,-0.024414,0.078613,0.40625,160,160,113,96
47.470,15:20:6.470,-9.454102,-0.370117,1.295898,-0.120117,0.02002,0.229736,0.,0.,0.,2.275146,-0.008545,0.070068,0.421875,161,154,114,96
47.570,15:20:6.570,-9.779297,1.168945,-0.232422,-0.094482,-0.029785,0.009521,0.,0.,0.,2.266357,-0.000732,0.06958,0.433594,156,157,115,98
47.670,15:20:6.670,-10.191406,0.921875,-0.398438,-0.153076,0.127686,-0.02124,0.,0.,0.,2.256592,0.001465,0.067139,0.441406,155,159,116,104
47.770,15:20:6.770,-9.420898,-0.650391,-0.982422,-0.159424,-0.27124,-0.078613,0.,0.,0.,2.24707,0.000244,0.064453,0.445312,156,155,117,104
47.870,15:20:6.870,-9.209961,0.512695,-0.626953,-0.122314,-0.128662,-0.011475,0.,0.,0.,2.236328,-0.002197,0.045898,0.445312,157,153,108,95
47.970,15:20:6.970,-9.209961,0.512695,-0.626953,-0.122314,-0.128662,-0.011475,0.,0.,0.,2.236328,-0.002197,0.045898,0.445312,157,153,108,95
48.070,15:20:7.070,-9.511719,-0.68457,1.111328,-0.166992,0.205322,-0.214844,0.,0.,0.,2.225342,-0.005127,0.041016,0.441406,157,158,102,92
48.170,15:20:7.170,-9.511719,-0.68457,1.111328,-0.166992,0.205322,-0.214844,0.,0.,0.,2.225342,-0.005127,0.041016,0.441406,157,158,102,92
48.270,15:20:7.270,-9.96582,-0.323242,1.37207,-0.122314,0.105225,-0.128662,0.,0.,0.,2.213867,-0.023193,0.060547,0.425781,158,162,99,92
48.370,15:20:7.370,-9.96582,-0.323242,1.37207,-0.122314,0.105225,-0.128662,0.,0.,0.,2.213867,-0.023193,0.060547,0.425781,158,162,99,92
48.470,15:20:7.470,-10.660156,-0.636719,2.013672,-0.109375,0.202148,-0.475586,0.,0.,0.,2.20459,-0.041748,0.078125,0.394531,158,163,98,93
48.570,15:20:7.570,-10.660156,-0.636719,2.013672,-0.109375,0.202148,-0.475586,0.,0.,0.,2.20459,-0.041748,0.078125,0.394531,158,163,98,93
48.670,15:20:7.670,-10.660156,-0.636719,2.013672,-0.109375,0.202148,-0.475586,0.,0.,0.,2.20459,-0.041748,0.078125,0.394531,158,163,98,93
48.770,15:20:7.770,-10.660156,-0.636719,2.013672,-0.109375,0.202148,-0.475586,0.,0.,0.,2.20459,-0.041748,0.078125,0.394531,158,163,98,93
48.870,15:20:7.870,-9.28125,-0.332031,-0.678711,-0.157471,0.005127,-0.006348,0.,0.,0.,2.17749,-0.059082,0.078857,0.449219,147,172,113,101
48.970,15:20:7.970,-10.148438,0.451172,1.078125,-0.146729,-0.388428,0.748047,0.,0.,0.,2.170898,-0.016602,0.060303,0.453125,135,172,125,98
49.070,15:20:8.070,-9.454102,0.02832,0.716797,-0.057373,-0.040283,0.149902,0.,0.,0.,2.165283,0.009766,0.045166,0.441406,134,172,111,95
49.170,15:20:8.170,-9.90918,0.541016,-1.595703,-0.093506,0.268066,0.013672,0.,0.,0.,2.161621,0.031738,0.054688,0.414062,134,177,102,99
49.270,15:20:8.270,-10.698242,0.332031,-0.788086,-0.061523,0.124512,-0.019043,0.,0.,0.,2.157959,0.034912,0.063477,0.40625,139,181,97,105
49.370,15:20:8.370,-10.310547,1.202148,0.34668,-0.081787,-0.189209,-0.679932,0.,0.,0.,2.155518,0.020508,0.067627,0.410156,147,183,95,101
49.470,15:20:8.470,-9.942383,0.037109,-0.869141,-0.070068,0.052979,-0.153076,0.,0.,0.,2.150391,-0.048828,0.046387,0.429688,145,183,95,97
49.570,15:20:8.570,-9.942383,0.037109,-0.869141,-0.070068,0.052979,-0.153076,0.,0.,0.,2.150391,-0.048828,0.046387,0.429688,145,183,95,97
49.670,15:20:8.670,-9.899414,1.591797,-1.15332,-0.041504,0.295654,-0.083984,0.,0.,0.,2.145508,-0.071533,0.047363,0.472656,144,177,94,100
49.770,15:20:8.770,-9.952148,0.469727,-0.174805,-0.089355,-0.110596,0.161621,0.,0.,0.,2.136475,-0.052734,0.076416,0.507812,128,149,93,102
49.870,15:20:8.870,-9.114258,0.071289,-1.001953,-0.032959,0.174316,0.070068,0.,0.,0.,2.132812,-0.036865,0.064941,0.503906,129,172,93,110
49.970,15:20:8.970,-9.114258,0.071289,-1.001953,-0.032959,0.174316,0.070068,0.,0.,0.,2.132812,-0.036865,0.064941,0.503906,129,172,93,110
50.070,15:20:9.070,-10.239258,0.855469,0.02832,-0.032959,0.006348,0.038086,0.,0.,0.,2.133789,-0.029541,0.072754,0.480469,128,191,96,127
50.170,15:20:9.170,-10.239258,0.855469,0.02832,-0.032959,0.006348,0.038086,0.,0.,0.,2.133789,-0.029541,0.072754,0.480469,128,191,96,127
50.270,15:20:9.270,-10.46875,0.822266,-1.476562,-0.009521,-0.845947,0.09668,0.,0.,0.,2.138672,-0.020508,0.024658,0.472656,127,225,97,120
50.370,15:20:9.370,-9.521484,0.341797,-2.450195,-0.02124,-0.255371,0.006348,0.,0.,0.,2.140869,-0.013672,-0.008301,0.5,127,237,98,111
50.470,15:20:9.470,-9.142578,-0.18457,0.484375,-0.018066,0.480957,0.052979,0.,0.,0.,2.142822,-0.006104,-0.020752,0.503906,128,237,98,114
50.570,15:20:9.570,-8.707031,0.056641,0.260742,-0.022217,0.197754,-0.063721,0.,0.,0.,2.145508,0.,0.036621,0.503906,131,237,98,116
50.670,15:20:9.670,-8.707031,0.056641,0.260742,-0.022217,0.197754,-0.063721,0.,0.,0.,2.145508,0.,0.036621,0.503906,131,237,98,116
50.770,15:20:9.770,-8.707031,0.056641,0.260742,-0.022217,0.197754,-0.063721,0.,0.,0.,2.145508,0.,0.036621,0.503906,131,237,98,116
50.870,15:20:9.870,-10.358398,-0.12793,-0.588867,-0.062744,0.273438,0.046631,0.,0.,0.,2.14917,-0.010254,0.070068,0.511719,130,235,101,106
50.970,15:20:9.970,-9.650391,0.964844,-1.410156,-0.006348,0.126465,-0.102051,0.,0.,0.,2.147949,-0.010254,0.096924,0.515625,133,228,101,106
51.070,15:20:10.070,-9.257812,-0.860352,-0.161133,-0.065918,-0.041504,-0.11792,0.,0.,0.,2.147217,-0.008301,0.099854,0.519531,135,210,101,135
51.170,15:20:10.170,-10.047852,0.066406,0.113281,-0.064697,-0.74585,-0.093506,0.,0.,0.,2.145508,-0.014648,0.052734,0.507812,130,229,104,127
51.270,15:20:10.270,-10.181641,-0.066406,1.428711,-0.092529,-0.210693,-0.163818,0.,0.,0.,2.142822,-0.013428,0.019775,0.5,131,189,106,109
51.370,15:20:10.370,-10.554688,-0.251953,0.260742,-0.086182,0.439453,0.007324,0.,0.,0.,2.139893,-0.012939,0.009277,0.488281,133,119,106,108
51.470,15:20:10.470,-10.458984,0.650391,0.982422,-0.051025,0.236084,0.033936,0.,0.,0.,2.13623,-0.009766,0.06665,0.488281,129,167,108,108
51.570,15:20:10.570,-10.458984,0.650391,0.982422,-0.051025,0.236084,0.033936,0.,0.,0.,2.13623,-0.009766,0.06665,0.488281,129,167,108,108
51.670,15:20:10.670,-9.320312,0.541016,0.697266,-0.048828,0.011475,-0.064697,0.,0.,0.,2.131104,-0.006348,0.079102,0.5,127,239,108,131
51.770,15:20:10.770,-9.214844,-0.018555,0.313477,-0.070068,-0.52124,-0.027588,0.,0.,0.,2.129639,-0.00708,0.057617,0.507812,127,239,110,132
51.870,15:20:10.870,-9.214844,-0.018555,0.313477,-0.070068,-0.52124,-0.027588,0.,0.,0.,2.129639,-0.00708,0.057617,0.507812,127,239,110,132
51.970,15:20:10.970,-9.650391,1.288086,-1.899414,-0.060547,-0.088135,-0.009521,0.,0.,0.,2.12793,-0.009521,0.022705,0.511719,124,215,115,133
52.070,15:20:11.070,-10.229492,-0.545898,-0.246094,-0.075439,0.212646,0.196777,0.,0.,0.,2.124512,-0.006836,0.020508,0.515625,122,179,113,135
52.170,15:20:11.170,-10.229492,-0.545898,-0.246094,-0.075439,0.212646,0.196777,0.,0.,0.,2.124512,-0.006836,0.020508,0.515625,122,179,113,135
52.270,15:20:11.270,-10.038086,-0.179688,0.212891,-0.052979,0.062744,0.025391,0.,0.,0.,2.116211,-0.02832,0.057373,0.554688,117,242,114,150
52.370,15:20:11.370,-9.530273,-0.008789,0.693359,-0.060547,-0.045654,0.166992,0.,0.,0.,2.115723,-0.020752,0.053223,0.550781,118,242,116,138
52.470,15:20:11.470,-9.530273,-0.008789,0.693359,-0.060547,-0.045654,0.166992,0.,0.,0.,2.115723,-0.020752,0.053223,0.550781,118,242,116,138
52.570,15:20:11.570,-10.166992,-0.013672,-0.564453,-0.054199,0.014893,0.018066,0.,0.,0.,2.11499,-0.008789,0.043945,0.546875,118,153,118,136
52.670,15:20:11.670,-10.166992,-0.013672,-0.564453,-0.054199,0.014893,0.018066,0.,0.,0.,2.11499,-0.008789,0.043945,0.546875,118,153,118,136
52.770,15:20:11.770,-9.789062,0.494141,-1.785156,-0.069092,0.054199,0.181885,0.,0.,0.,2.114502,0.00415,0.046143,0.542969,118,95,118,142
52.870,15:20:11.870,-9.789062,0.494141,-1.785156,-0.069092,0.054199,0.181885,0.,0.,0.,2.114502,0.00415,0.046143,0.542969,118,95,118,142
52.970,15:20:11.970,-9.717773,-0.456055,1.310547,-0.051025,0.031738,0.016846,0.,0.,0.,2.113525,0.010986,0.053223,0.542969,118,183,118,142
53.070,15:20:12.070,-10.363281,0.688477,-0.212891,-0.031738,0.213867,-0.174316,0.,0.,0.,2.113281,0.004395,0.056641,0.535156,118,243,113,137
53.170,15:20:12.170,-10.033203,-0.655273,-1.823242,-0.041504,0.02124,-0.026367,0.,0.,0.,2.113281,-0.005127,0.056641,0.535156,118,243,110,137
53.270,15:20:12.270,-10.033203,-0.655273,-1.823242,-0.041504,0.02124,-0.026367,0.,0.,0.,2.113281,-0.005127,0.056641,0.535156,118,243,110,137
53.370,15:20:12.370,-10.033203,-0.655273,-1.823242,-0.041504,0.02124,-0.026367,0.,0.,0.,2.113281,-0.005127,0.056641,0.535156,118,243,110,137
53.470,15:20:12.470,-9.985352,-0.051758,-0.451172,-0.039307,0.130859,-0.039307,0.,0.,0.,2.112793,-0.037842,0.059814,0.515625,117,245,114,129
53.570,15:20:12.570,-9.985352,-0.051758,-0.451172,-0.039307,0.130859,-0.039307,0.,0.,0.,2.112793,-0.037842,0.059814,0.515625,117,245,114,129
53.670,15:20:12.670,-10.057617,0.46582,-1.842773,-0.048828,0.02124,0.291504,0.,0.,0.,2.111328,-0.044434,0.052246,0.519531,117,246,113,108
53.770,15:20:12.770,-10.057617,0.46582,-1.842773,-0.048828,0.02124,0.291504,0.,0.,0.,2.111328,-0.044434,0.052246,0.519531,117,246,113,108
53.870,15:20:12.870,-10.37793,-0.293945,0.066406,-0.102051,-0.098877,-0.088135,0.,0.,0.,2.108887,-0.019531,0.05249,0.523438,117,246,113,120
53.970,15:20:12.970,-9.142578,-0.24707,0.446289,-0.07959,0.369141,-0.067871,0.,0.,0.,2.10498,-0.009766,0.066162,0.519531,116,246,110,138
54.070,15:20:13.070,-9.875,0.878906,-0.650391,-0.084961,0.114746,0.070068,0.,0.,0.,2.100586,-0.014648,0.088135,0.523438,115,248,108,137
54.170,15:20:13.170,-9.875,0.878906,-0.650391,-0.084961,0.114746,0.070068,0.,0.,0.,2.100586,-0.014648,0.088135,0.523438,115,248,108,137
54.270,15:20:13.270,-9.286133,-0.62207,0.222656,-0.061523,0.005127,-0.702148,0.,0.,0.,2.083496,0.026611,0.043945,0.585938,114,247,108,164
54.370,15:20:13.370,-9.286133,-0.62207,0.222656,-0.061523,0.005127,-0.702148,0.,0.,0.,2.083496,0.026611,0.043945,0.585938,114,247,108,164
54.470,15:20:13.470,-9.104492,0.541016,0.250977,-0.081787,0.04248,-0.438232,0.,0.,0.,2.078125,-0.055664,0.046143,0.574219,113,248,109,154
54.570,15:20:13.570,-9.104492,0.541016,0.250977,-0.081787,0.04248,-0.438232,0.,0.,0.,2.078125,-0.055664,0.046143,0.574219,113,248,109,154
54.670,15:20:13.670,-10.541016,1.049805,-0.360352,-0.084961,0.009521,0.519287,0.,0.,0.,2.072266,-0.072754,0.043457,0.558594,112,249,106,141
54.770,15:20:13.770,-10.066406,0.037109,0.393555,-0.086182,-0.065918,0.086182,0.,0.,0.,2.068848,-0.014648,0.043213,0.554688,112,249,105,148
54.870,15:20:13.870,-10.282227,0.59375,-0.388672,-0.080811,0.029785,-0.259521,0.,0.,0.,2.066895,0.004395,0.044678,0.539062,111,250,105,159
54.970,15:20:13.970,-10.392578,0.113281,0.797852,-0.056396,0.101074,0.081787,0.,0.,0.,2.062988,-0.016602,0.047607,0.535156,111,250,105,154
55.070,15:20:14.070,-10.176758,0.199219,1.980469,-0.074463,0.073242,0.17334,0.,0.,0.,2.059082,-0.023438,0.042725,0.53125,106,250,105,147
55.170,15:20:14.170,-10.176758,0.199219,1.980469,-0.074463,0.073242,0.17334,0.,0.,0.,2.059082,-0.023438,0.042725,0.53125,106,250,105,147
55.270,15:20:14.270,-10.176758,0.199219,1.980469,-0.074463,0.073242,0.17334,0.,0.,0.,2.059082,-0.023438,0.042725,0.53125,106,250,105,147
55.370,15:20:14.370,-9.645508,0.646484,-0.801758,-0.088135,0.041504,0.595947,0.,0.,0.,2.032959,-0.05957,0.02832,0.5625,97,232,94,116
55.470,15:20:14.470,-9.645508,0.646484,-0.801758,-0.088135,0.041504,0.595947,0.,0.,0.,2.032959,-0.05957,0.02832,0.5625,97,232,94,116
55.570,15:20:14.570,-9.353516,-0.764648,-0.764648,-0.129639,0.000977,0.19458,0.,0.,0.,2.029541,0.001465,0.032715,0.5625,97,184,90,144
55.670,15:20:14.670,-9.353516,-0.764648,-0.764648,-0.129639,0.000977,0.19458,0.,0.,0.,2.029541,0.001465,0.032715,0.5625,97,184,90,144
55.770,15:20:14.770,-9.353516,-0.764648,-0.764648,-0.129639,0.000977,0.19458,0.,0.,0.,2.029541,0.001465,0.032715,0.5625,97,184,90,144
55.870,15:20:14.870,-9.353516,-0.764648,-0.764648,-0.129639,0.000977,0.19458,0.,0.,0.,2.029541,0.001465,0.032715,0.5625,97,184,90,144
55.970,15:20:14.970,-10.014648,1.097656,0.579102,-0.0979,-0.003174,-0.1521,0.,0.,0.,2.012695,-0.055664,0.041504,0.5625,97,251,91,149
56.070,15:20:15.070,-10.014648,1.097656,0.579102,-0.0979,-0.003174,-0.1521,0.,0.,0.,2.012695,-0.055664,0.041504,0.5625,97,251,91,149
56.170,15:20:15.170,-10.014648,1.097656,0.579102,-0.0979,-0.003174,-0.1521,0.,0.,0.,2.012695,-0.055664,0.041504,0.5625,97,251,91,149
56.270,15:20:15.270,-9.932617,-0.175781,0.564453,-0.088135,0.036133,0.184082,0.,0.,0.,2.004639,-0.027344,0.05127,0.542969,101,247,91,150
56.370,15:20:15.370,-9.932617,-0.175781,0.564453,-0.088135,0.036133,0.184082,0.,0.,0.,2.004639,-0.027344,0.05127,0.542969,101,247,91,150
56.470,15:20:15.470,-9.741211,0.641602,-1.282227,-0.07959,0.176514,-0.023193,0.,0.,0.,2.000244,-0.020752,0.060059,0.519531,102,247,91,152
56.570,15:20:15.570,-9.741211,0.641602,-1.282227,-0.07959,0.176514,-0.023193,0.,0.,0.,2.000244,-0.020752,0.060059,0.519531,102,247,91,152
56.670,15:20:15.670,-9.995117,0.179688,-1.253906,-0.057373,0.015869,-0.05957,0.,0.,0.,1.99707,-0.020508,0.069092,0.488281,104,247,92,149
56.770,15:20:15.770,-10.105469,-1.011719,0.99707,-0.063721,0.046631,0.0979,0.,0.,0.,1.990479,-0.020996,0.07373,0.523438,109,247,95,143
56.870,15:20:15.870,-9.429688,-0.123047,-0.673828,-0.070068,0.147705,0.003174,0.,0.,0.,1.98584,-0.019531,0.074707,0.558594,111,247,97,142
56.970,15:20:15.970,-9.43457,0.436523,-0.574219,-0.057373,-0.093506,-0.084961,0.,0.,0.,1.984375,-0.006348,0.082764,0.5625,114,247,97,146
57.070,15:20:16.070,-9.917969,0.046875,1.09668,-0.088135,0.086182,0.069092,0.,0.,0.,1.982178,-0.002441,0.087158,0.550781,118,239,98,147
57.170,15:20:16.170,-10.038086,-0.033203,-1.400391,-0.060547,0.025391,0.051025,0.,0.,0.,1.981445,-0.003662,0.087646,0.542969,120,227,97,147
57.270,15:20:16.270,-10.201172,0.779297,-0.99707,-0.055176,0.205322,-0.21167,0.,0.,0.,1.979736,-0.006104,0.092041,0.527344,120,208,97,146
57.370,15:20:16.370,-9.693359,0.270508,-0.630859,-0.066895,0.011475,-0.026367,0.,0.,0.,1.979248,-0.010742,0.100342,0.519531,121,180,101,145
57.470,15:20:16.470,-9.693359,0.270508,-0.630859,-0.066895,0.011475,-0.026367,0.,0.,0.,1.979248,-0.010742,0.100342,0.519531,121,180,101,145
57.570,15:20:16.570,-10.416016,0.731445,-0.308594,-0.047852,-0.222412,0.045654,0.,0.,0.,1.97876,-0.010254,0.091797,0.523438,121,225,107,144
57.670,15:20:16.670,-9.338867,0.293945,-0.678711,-0.049805,-0.05835,-0.02124,0.,0.,0.,1.979004,-0.008057,0.081299,0.527344,122,293,106,143
57.770,15:20:16.770,-9.645508,-0.242188,-0.212891,-0.037109,-0.027588,0.076416,0.,0.,0.,1.980713,-0.007812,0.07251,0.53125,122,291,105,143
57.870,15:20:16.870,-9.645508,-0.242188,-0.212891,-0.037109,-0.027588,0.076416,0.,0.,0.,1.980713,-0.007812,0.07251,0.53125,122,291,105,143
57.970,15:20:16.970,-10.081055,-0.293945,-0.831055,-0.029785,-0.091309,-0.126465,0.,0.,0.,1.985352,0.01416,0.061768,0.539062,121,286,114,143
58.070,15:20:17.070,-9.338867,0.436523,-1.15332,-0.022217,-0.025391,-0.027588,0.,0.,0.,1.987061,0.005371,0.056885,0.539062,120,285,114,143
58.170,15:20:17.170,-9.454102,0.12793,-1.410156,-0.029785,-0.066895,0.049805,0.,0.,0.,1.989746,0.00415,0.054932,0.542969,118,282,115,144
58.270,15:20:17.270,-9.209961,-0.375,-0.174805,-0.031738,0.011475,-0.023193,0.,0.,0.,1.991943,0.008789,0.053955,0.546875,117,280,118,145
58.370,15:20:17.370,-9.827148,-0.15625,0.688477,-0.023193,-0.007324,-0.130859,0.,0.,0.,1.99292,0.008789,0.04834,0.550781,115,278,120,146
58.470,15:20:17.470,-9.856445,-0.469727,1.277344,-0.006348,0.0979,-0.024414,0.,0.,0.,1.99585,0.008057,0.043457,0.550781,114,277,121,147
58.570,15:20:17.570,-10.330078,0.474609,0.602539,-0.036133,-0.046631,0.065918,0.,0.,0.,1.998535,0.00415,0.038086,0.550781,112,275,123,148
58.670,15:20:17.670,-10.330078,0.474609,0.602539,-0.036133,-0.046631,0.065918,0.,0.,0.,1.998535,0.00415,0.038086,0.550781,112,275,123,148
58.770,15:20:17.770,-10.071289,-0.013672,-1.035156,-0.003174,-0.019043,-0.07959,0.,0.,0.,2.003662,-0.013672,0.016357,0.550781,105,279,123,156
58.870,15:20:17.870,-10.071289,-0.013672,-1.035156,-0.003174,-0.019043,-0.07959,0.,0.,0.,2.003662,-0.013672,0.016357,0.550781,105,279,123,156
58.970,15:20:17.970,-9.866211,0.436523,0.041992,-0.010498,-0.024414,-0.015869,0.,0.,0.,2.004883,-0.012939,0.014404,0.546875,105,276,124,156
59.070,15:20:18.070,-9.866211,0.436523,0.041992,-0.010498,-0.024414,-0.015869,0.,0.,0.,2.004883,-0.012939,0.014404,0.546875,105,276,124,156
59.170,15:20:18.170,-10.148438,-0.379883,1.628906,-0.028564,-0.013672,0.023193,0.,0.,0.,2.006348,-0.016602,0.015381,0.542969,105,274,125,158
59.270,15:20:18.270,-10.004883,1.007812,1.249023,-0.02124,0.166992,-0.057373,0.,0.,0.,2.00708,-0.016602,0.017334,0.542969,105,274,126,157
59.370,15:20:18.370,-10.191406,-0.545898,-0.75,-0.069092,0.064697,0.02002,0.,0.,0.,2.005859,-0.017578,0.024414,0.542969,105,274,122,157
59.470,15:20:18.470,-10.191406,-0.545898,-0.75,-0.069092,0.064697,0.02002,0.,0.,0.,2.005859,-0.017578,0.024414,0.542969,105,274,122,157
59.570,15:20:18.570,-9.630859,-0.227539,-1.239258,-0.052979,0.003174,-0.067871,0.,0.,0.,2.003174,-0.018555,0.029785,0.542969,106,274,120,156
59.670,15:20:18.670,-10.095703,-0.579102,-1.367188,-0.0979,-0.001953,-0.030762,0.,0.,0.,2.000244,-0.018066,0.035156,0.542969,107,274,120,156
59.770,15:20:18.770,-9.932617,0.179688,0.660156,-0.083984,0.102051,-0.008301,0.,0.,0.,1.996094,-0.016846,0.039551,0.542969,109,275,120,154
59.870,15:20:18.870,-9.932617,0.179688,0.660156,-0.083984,0.102051,-0.008301,0.,0.,0.,1.996094,-0.016846,0.039551,0.542969,109,275,120,154
59.970,15:20:18.970,-9.96582,0.797852,-0.080078,-0.041504,0.091309,-0.048828,0.,0.,0.,1.99292,-0.015869,0.041992,0.546875,111,253,120,152
60.070,15:20:19.070,-9.401367,0.446289,-0.355469,-0.055176,-0.043457,-0.066895,0.,0.,0.,1.989746,-0.011475,0.063965,0.546875,116,183,120,148
60.170,15:20:19.170,-9.291016,-0.327148,-0.265625,-0.04248,0.258545,0.033936,0.,0.,0.,1.986816,-0.01123,0.06958,0.546875,120,252,120,146
60.270,15:20:19.270,-9.181641,-0.413086,0.408203,-0.031738,0.016846,0.013672,0.,0.,0.,1.98584,-0.013428,0.075684,0.546875,122,260,118,144
60.370,15:20:19.370,-10.368164,-0.037109,0.522461,-0.060547,0.046631,-0.132812,0.,0.,0.,1.984131,-0.013428,0.080811,0.542969,126,218,118,140
60.470,15:20:19.470,-10.368164,-0.037109,0.522461,-0.060547,0.046631,-0.132812,0.,0.,0.,1.984131,-0.013428,0.080811,0.542969,126,218,118,140
60.570,15:20:19.570,-10.368164,-0.037109,0.522461,-0.060547,0.046631,-0.132812,0.,0.,0.,1.984131,-0.013428,0.080811,0.542969,126,218,118,140
60.670,15:20:19.670,-10.445312,-0.066406,-0.987305,-0.07959,-0.197754,-0.206299,0.,0.,0.,1.969482,-0.010498,0.064941,0.542969,144,219,117,132
60.770,15:20:19.770,-10.445312,-0.066406,-0.987305,-0.07959,-0.197754,-0.206299,0.,0.,0.,1.969482,-0.010498,0.064941,0.542969,144,219,117,132
60.870,15:20:19.870,-10.445312,-0.066406,-0.987305,-0.07959,-0.197754,-0.206299,0.,0.,0.,1.969482,-0.010498,0.064941,0.542969,144,219,117,132
60.970,15:20:19.970,-10.291992,1.288086,1.086914,-0.121094,-0.051025,-0.074463,0.,0.,0.,1.958496,-0.013672,0.05957,0.539062,143,263,117,129
61.070,15:20:20.070,-10.023438,-0.499023,0.711914,-0.102051,0.038086,-0.026367,0.,0.,0.,1.951904,-0.020264,0.057129,0.539062,145,277,119,129
61.170,15:20:20.170,-10.258789,0.018555,0.208984,-0.125488,0.11377,0.086182,0.,0.,0.,1.945312,-0.02002,0.055908,0.539062,147,274,120,128
61.270,15:20:20.270,-10.209961,0.089844,0.089844,-0.11792,-0.125488,-0.091309,0.,0.,0.,1.939209,-0.010498,0.058105,0.539062,148,274,120,128
61.370,15:20:20.370,-9.482422,-0.275391,0.322266,-0.104248,0.046631,0.069092,0.,0.,0.,1.933105,-0.003174,0.062256,0.539062,150,274,119,126
61.470,15:20:20.470,-9.884766,0.499023,-0.413086,-0.120117,0.144531,-0.010498,0.,0.,0.,1.926758,-0.000244,0.059082,0.535156,151,278,118,125
61.570,15:20:20.570,-10.229492,0.336914,-0.317383,-0.074463,-0.052002,-0.126465,0.,0.,0.,1.920166,-0.006348,0.062988,0.535156,153,285,118,124
61.670,15:20:20.670,-10.516602,0.146484,0.398438,-0.084961,0.02124,-0.108398,0.,0.,0.,1.915283,-0.013428,0.061768,0.535156,154,280,118,124
61.770,15:20:20.770,-10.516602,0.146484,0.398438,-0.084961,0.02124,-0.108398,0.,0.,0.,1.915283,-0.013428,0.061768,0.535156,154,280,118,124
61.870,15:20:20.870,-10.363281,-0.018555,0.517578,-0.111572,-0.040283,-0.00415,0.,0.,0.,1.866455,-0.016357,0.057373,0.546875,160,210,114,120
61.970,15:20:20.970,-10.363281,-0.018555,0.517578,-0.111572,-0.040283,-0.00415,0.,0.,0.,1.866455,-0.016357,0.057373,0.546875,160,210,114,120
62.070,15:20:21.070,-10.363281,-0.018555,0.517578,-0.111572,-0.040283,-0.00415,0.,0.,0.,1.866455,-0.016357,0.057373,0.546875,160,210,114,120
62.170,15:20:21.170,-9.899414,1.173828,0.099609,-0.084961,0.030762,-0.074463,0.,0.,0.,1.855225,-0.024658,0.052979,0.550781,160,178,114,121
62.270,15:20:21.270,-9.899414,1.173828,0.099609,-0.084961,0.030762,-0.074463,0.,0.,0.,1.855225,-0.024658,0.052979,0.550781,160,178,114,121
62.370,15:20:21.370,-9.899414,-0.608398,0.242188,-0.090332,0.063721,0.064697,0.,0.,0.,1.851074,-0.021973,0.052002,0.554688,160,271,114,121
62.470,15:20:21.470,-9.995117,0.759766,-0.569336,-0.093506,0.071289,0.008301,0.,0.,0.,1.838379,-0.013184,0.050293,0.550781,158,171,116,122
62.570,15:20:21.570,-9.927734,-0.46582,0.365234,-0.065918,-0.007324,0.003174,0.,0.,0.,1.834717,-0.012451,0.050049,0.554688,158,171,117,122
62.670,15:20:21.670,-9.818359,-0.118164,0.583984,-0.05957,-0.052979,-0.046631,0.,0.,0.,1.832031,-0.007568,0.050537,0.554688,158,228,118,122
62.770,15:20:21.770,-9.248047,0.517578,-1.642578,-0.037109,0.052002,0.011475,0.,0.,0.,1.831055,-0.00415,0.050781,0.554688,159,266,119,122
62.870,15:20:21.870,-10.287109,0.365234,0.166016,-0.047852,-0.029785,-0.043457,0.,0.,0.,1.830322,-0.00293,0.048828,0.554688,162,264,120,122
62.970,15:20:21.970,-9.961914,-0.123047,1.458008,-0.043457,-0.003174,0.019043,0.,0.,0.,1.828857,-0.003662,0.050781,0.558594,162,264,120,122
63.070,15:20:22.070,-9.961914,-0.123047,1.458008,-0.043457,-0.003174,0.019043,0.,0.,0.,1.828857,-0.003662,0.050781,0.558594,162,264,120,122
63.170,15:20:22.170,-9.9375,0.974609,-0.070312,-0.032959,0.034912,-0.052979,0.,0.,0.,1.82666,-0.003662,0.052246,0.5625,159,262,121,123
63.270,15:20:22.270,-9.9375,0.974609,-0.070312,-0.032959,0.034912,-0.052979,0.,0.,0.,1.82666,-0.003662,0.052246,0.5625,159,262,121,123
63.370,15:20:22.370,-9.9375,0.974609,-0.070312,-0.032959,0.034912,-0.052979,0.,0.,0.,1.82666,-0.003662,0.052246,0.5625,159,262,121,123
63.470,15:20:22.470,-9.922852,-0.194336,0.75,-0.039307,0.065918,-0.055176,0.,0.,0.,1.82251,-0.008301,0.048584,0.570312,157,261,120,122
63.570,15:20:22.570,-9.922852,-0.194336,0.75,-0.039307,0.065918,-0.055176,0.,0.,0.,1.82251,-0.008301,0.048584,0.570312,157,261,120,122
63.670,15:20:22.670,-9.587891,-0.741211,1.120117,-0.077637,0.027588,-0.073242,0.,0.,0.,1.812256,-0.01416,0.052246,0.578125,159,259,123,120
63.770,15:20:22.770,-9.587891,-0.741211,1.120117,-0.077637,0.027588,-0.073242,0.,0.,0.,1.812256,-0.01416,0.052246,0.578125,159,259,123,120
63.870,15:20:22.870,-9.43457,0.417969,-1.287109,-0.081787,0.034912,-0.00415,0.,0.,0.,1.808594,-0.012207,0.050293,0.585938,159,259,125,119
63.970,15:20:22.970,-9.43457,0.417969,-1.287109,-0.081787,0.034912,-0.00415,0.,0.,0.,1.808594,-0.012207,0.050293,0.585938,159,259,125,119
64.070,15:20:23.070,-9.832031,0.494141,-0.459961,-0.086182,0.066895,0.023193,0.,0.,0.,1.805664,-0.013428,0.050537,0.585938,160,258,126,118
64.170,15:20:23.170,-9.832031,0.494141,-0.459961,-0.086182,0.066895,0.023193,0.,0.,0.,1.805664,-0.013428,0.050537,0.585938,160,258,126,118
64.270,15:20:23.270,-9.832031,0.494141,-0.459961,-0.086182,0.066895,0.023193,0.,0.,0.,1.805664,-0.013428,0.050537,0.585938,160,258,126,118
64.370,15:20:23.370,-10.02832,-0.056641,0.426758,-0.072266,0.083984,-0.143555,0.,0.,0.,1.79834,-0.013916,0.056152,0.589844,162,255,128,116
64.470,15:20:23.470,-10.02832,-0.056641,0.426758,-0.072266,0.083984,-0.143555,0.,0.,0.,1.79834,-0.013916,0.056152,0.589844,162,255,128,116
64.570,15:20:23.570,-10.052734,-0.204102,0.835938,-0.091309,0.005127,-0.044678,0.,0.,0.,1.794434,-0.009766,0.059082,0.59375,163,255,129,115
64.670,15:20:23.670,-9.458984,0.137695,0.270508,-0.090332,0.064697,0.122314,0.,0.,0.,1.791016,-0.012207,0.062012,0.59375,162,254,129,115
64.770,15:20:23.770,-9.458984,0.137695,0.270508,-0.090332,0.064697,0.122314,0.,0.,0.,1.791016,-0.012207,0.062012,0.59375,162,254,129,115
64.870,15:20:23.870,-10.033203,0.094727,-0.588867,-0.098877,-0.016846,-0.061523,0.,0.,0.,1.785645,-0.01709,0.060059,0.59375,161,254,130,113
64.970,15:20:23.970,-10.033203,0.094727,-0.588867,-0.098877,-0.016846,-0.061523,0.,0.,0.,1.785645,-0.01709,0.060059,0.59375,161,254,130,113
65.070,15:20:24.070,-10.033203,0.094727,-0.588867,-0.098877,-0.016846,-0.061523,0.,0.,0.,1.785645,-0.01709,0.060059,0.59375,161,254,130,113
65.170,15:20:24.170,-9.363281,0.242188,-0.161133,-0.114746,-0.006348,0.048828,0.,0.,0.,1.773682,-0.012207,0.059814,0.597656,162,152,131,111
65.270,15:20:24.270,-9.31543,-0.123047,-0.583984,-0.107422,0.034912,-0.075439,0.,0.,0.,1.767334,-0.013428,0.060547,0.597656,164,151,134,110
65.370,15:20:24.370,-9.856445,0.113281,1.048828,-0.143555,-0.005127,-0.014893,0.,0.,0.,1.758545,-0.012939,0.066162,0.597656,166,226,135,109
65.470,15:20:24.470,-9.420898,-0.660156,0.512695,-0.138184,0.044678,-0.043457,0.,0.,0.,1.752197,-0.015625,0.067139,0.597656,165,250,138,109
65.570,15:20:24.570,-9.420898,-0.660156,0.512695,-0.138184,0.044678,-0.043457,0.,0.,0.,1.752197,-0.015625,0.067139,0.597656,165,250,138,109
65.670,15:20:24.670,-9.420898,-0.660156,0.512695,-0.138184,0.044678,-0.043457,0.,0.,0.,1.752197,-0.015625,0.067139,0.597656,165,250,138,109
65.770,15:20:24.770,-9.420898,-0.660156,0.512695,-0.138184,0.044678,-0.043457,0.,0.,0.,1.752197,-0.015625,0.067139,0.597656,165,250,138,109
65.870,15:20:24.870,-9.420898,-0.660156,0.512695,-0.138184,0.044678,-0.043457,0.,0.,0.,1.752197,-0.015625,0.067139,0.597656,165,250,138,109
65.970,15:20:24.970,-10.258789,1.117188,0.161133,-0.135986,-0.011475,-0.026367,0.,0.,0.,1.725098,-0.015137,0.069336,0.589844,167,247,139,104
66.070,15:20:25.070,-9.564453,-0.474609,0.018555,-0.123291,0.001953,-0.09668,0.,0.,0.,1.718994,-0.011963,0.069092,0.585938,167,247,140,102
66.170,15:20:25.170,-10.0625,0.893555,0.383789,-0.115967,0.025391,-0.0979,0.,0.,0.,1.71167,-0.009033,0.076904,0.585938,166,247,140,102
66.270,15:20:25.270,-10.0625,0.893555,0.383789,-0.115967,0.025391,-0.0979,0.,0.,0.,1.71167,-0.009033,0.076904,0.585938,166,247,140,102
66.370,15:20:25.370,-9.961914,0.517578,-2.393555,-0.099854,0.023193,0.093506,0.,0.,0.,1.697998,-0.012451,0.078369,0.582031,166,247,144,101
66.470,15:20:25.470,-9.760742,0.46582,0.217773,-0.07959,0.033936,-0.109375,0.,0.,0.,1.690918,-0.011719,0.07666,0.578125,166,246,144,101
66.570,15:20:25.570,-10.44043,-0.179688,1.624023,-0.089355,-0.099854,-0.088135,0.,0.,0.,1.685547,-0.010986,0.077637,0.578125,164,245,146,101
66.670,15:20:25.670,-9.477539,0.541016,-1.529297,-0.109375,0.067871,0.023193,0.,0.,0.,1.680664,-0.009521,0.070801,0.570312,164,244,147,101
66.770,15:20:25.770,-10.143555,-0.123047,1.015625,-0.099854,0.05835,0.022217,0.,0.,0.,1.674805,-0.01001,0.067871,0.570312,163,243,149,101
66.870,15:20:25.870,-10.143555,-0.123047,1.015625,-0.099854,0.05835,0.022217,0.,0.,0.,1.674805,-0.01001,0.067871,0.570312,163,243,149,101
66.970,15:20:25.970,-9.630859,1.069336,-0.564453,-0.074463,0.052002,-0.083008,0.,0.,0.,1.663818,-0.007324,0.06665,0.570312,161,245,151,103
67.070,15:20:26.070,-9.899414,-0.555664,1.5,-0.075439,0.041504,0.000977,0.,0.,0.,1.660645,-0.00708,0.064941,0.570312,160,251,151,103
67.170,15:20:26.170,-9.856445,0.089844,0.151367,-0.056396,-0.090332,0.029785,0.,0.,0.,1.657471,-0.010742,0.05835,0.566406,159,248,152,103
67.270,15:20:26.270,-9.922852,0.18457,-0.02832,-0.091309,-0.041504,-0.169189,0.,0.,0.,1.654541,-0.009766,0.057129,0.5625,158,244,152,104
67.370,15:20:26.370,-10.287109,0.033203,0.469727,-0.081787,0.047852,-0.074463,0.,0.,0.,1.650879,-0.007812,0.053711,0.5625,156,244,152,105
67.470,15:20:26.470,-9.463867,0.583984,0.289062,-0.078613,0.02002,0.139404,0.,0.,0.,1.647949,-0.010986,0.057129,0.5625,155,244,152,107
67.570,15:20:26.570,-10.09082,1.387695,-0.051758,-0.039307,0.02002,0.032959,0.,0.,0.,1.644531,-0.015137,0.05542,0.566406,154,245,152,108
67.670,15:20:26.670,-9.277344,-0.041992,-0.916016,-0.048828,-0.052002,-0.066895,0.,0.,0.,1.64209,-0.011963,0.051514,0.566406,153,247,150,110
67.770,15:20:26.770,-9.866211,-0.289062,0.826172,-0.057373,-0.146729,-0.05957,0.,0.,0.,1.640625,-0.013184,0.051025,0.5625,150,245,149,111
67.870,15:20:26.870,-9.866211,-0.289062,0.826172,-0.057373,-0.146729,-0.05957,0.,0.,0.,1.640625,-0.013184,0.051025,0.5625,150,245,149,111
67.970,15:20:26.970,-10.483398,-0.688477,-0.484375,-0.090332,0.052002,0.074463,0.,0.,0.,1.63623,-0.013916,0.041992,0.5625,147,244,152,115
68.070,15:20:27.070,-10.483398,-0.688477,-0.484375,-0.090332,0.052002,0.074463,0.,0.,0.,1.63623,-0.013916,0.041992,0.5625,147,244,152,115
68.170,15:20:27.170,-10.047852,0.489258,0.693359,-0.046631,-0.069092,-0.043457,0.,0.,0.,1.632812,-0.01709,0.040039,0.5625,146,244,153,116
68.270,15:20:27.270,-10.018555,0.099609,1.458008,-0.066895,0.034912,-0.094482,0.,0.,0.,1.629639,-0.014404,0.04248,0.5625,145,244,153,118
68.370,15:20:27.370,-9.429688,-0.255859,-0.630859,-0.069092,0.05835,-0.003174,0.,0.,0.,1.628418,-0.015137,0.043457,0.5625,145,245,153,119
68.470,15:20:27.470,-10.214844,0.598633,0.925781,-0.069092,-0.043457,-0.116943,0.,0.,0.,1.624512,-0.015625,0.043945,0.5625,144,244,152,121
68.570,15:20:27.570,-10.214844,0.598633,0.925781,-0.069092,-0.043457,-0.116943,0.,0.,0.,1.624512,-0.015625,0.043945,0.5625,144,244,152,121
68.670,15:20:27.670,-10.110352,-0.289062,-0.317383,-0.092529,0.046631,-0.010498,0.,0.,0.,1.621582,-0.013672,0.040039,0.5625,143,244,152,121
68.770,15:20:27.770,-9.540039,0.046875,-1.609375,-0.067871,0.127686,0.057373,0.,0.,0.,1.618408,-0.015625,0.04248,0.5625,143,243,153,122
68.870,15:20:27.870,-9.540039,0.046875,-1.609375,-0.067871,0.127686,0.057373,0.,0.,0.,1.618408,-0.015625,0.04248,0.5625,143,243,153,122
68.970,15:20:27.970,-10.488281,1.402344,-0.383789,-0.063721,0.146729,-0.007324,0.,0.,0.,1.612549,-0.016602,0.052002,0.5625,143,243,154,124
69.070,15:20:28.070,-9.698242,-0.583984,-0.003906,-0.091309,-0.122314,-0.009521,0.,0.,0.,1.608154,-0.015625,0.050781,0.5625,143,243,154,126
69.170,15:20:28.170,-9.583008,0.427734,0.417969,-0.099854,-0.0979,0.000977,0.,0.,0.,1.602783,-0.014648,0.056396,0.5625,145,242,154,126
69.270,15:20:28.270,-10.209961,0.522461,0.317383,-0.098877,0.122314,-0.029785,0.,0.,0.,1.596924,-0.013672,0.053711,0.5625,143,242,155,126
69.370,15:20:28.370,-9.277344,-1.03125,-1.068359,-0.126465,-0.054199,0.019043,0.,0.,0.,1.589355,-0.012695,0.052979,0.5625,140,239,157,126
69.470,15:20:28.470,-9.607422,1.535156,-0.12793,-0.092529,0.055176,-0.076416,0.,0.,0.,1.582764,-0.012695,0.056641,0.5625,139,238,155,127
69.570,15:20:28.570,-9.708008,-0.522461,0.426758,-0.103027,0.069092,0.051025,0.,0.,0.,1.578857,-0.009277,0.054688,0.558594,138,239,155,127
69.670,15:20:28.670,-9.583008,-0.15625,-0.033203,-0.121094,-0.033936,-0.072266,0.,0.,0.,1.573242,-0.009766,0.057617,0.554688,138,240,155,129
69.770,15:20:28.770,-10.655273,0.988281,0.897461,-0.090332,0.00415,0.023193,0.,0.,0.,1.56665,-0.008301,0.05957,0.554688,138,240,156,128
69.870,15:20:28.870,-9.526367,-0.222656,-0.77832,-0.084961,0.00415,-0.056396,0.,0.,0.,1.560059,-0.009521,0.057617,0.550781,137,243,157,128
69.970,15:20:28.970,-9.866211,0.827148,0.541016,-0.115967,0.012695,0.001953,0.,0.,0.,1.552734,-0.009277,0.056885,0.554688,137,249,158,128
70.070,15:20:29.070,-9.602539,-0.769531,-0.008789,-0.103027,0.087158,0.016846,0.,0.,0.,1.545166,-0.012939,0.058594,0.554688,137,244,158,129
70.170,15:20:29.170,-9.803711,0.641602,-0.835938,-0.107422,0.006348,-0.012695,0.,0.,0.,1.539551,-0.01123,0.056396,0.558594,138,220,158,129
70.270,15:20:29.270,-9.673828,-0.270508,1.453125,-0.089355,-0.027588,-0.069092,0.,0.,0.,1.532715,-0.015625,0.059326,0.558594,137,218,158,130
70.370,15:20:29.370,-9.673828,-0.270508,1.453125,-0.089355,-0.027588,-0.069092,0.,0.,0.,1.532715,-0.015625,0.059326,0.558594,137,218,158,130
70.470,15:20:29.470,-10.110352,-0.68457,0.731445,-0.103027,0.007324,0.024414,0.,0.,0.,1.52124,-0.015381,0.05542,0.5625,136,232,157,131
70.570,15:20:29.570,-10.110352,-0.68457,0.731445,-0.103027,0.007324,0.024414,0.,0.,0.,1.52124,-0.015381,0.05542,0.5625,136,232,157,131
70.670,15:20:29.670,-10.110352,-0.68457,0.731445,-0.103027,0.007324,0.024414,0.,0.,0.,1.52124,-0.015381,0.05542,0.5625,136,232,157,131
70.770,15:20:29.770,-9.439453,-0.617188,0.051758,-0.09668,0.038086,-0.078613,0.,0.,0.,1.502197,-0.016357,0.058594,0.5625,136,189,160,141
70.870,15:20:29.870,-9.439453,-0.617188,0.051758,-0.09668,0.038086,-0.078613,0.,0.,0.,1.502197,-0.016357,0.058594,0.5625,136,189,160,141
70.970,15:20:29.970,-10.277344,0.674805,-1.861328,-0.061523,-0.086182,-0.052002,0.,0.,0.,1.499268,-0.012451,0.056641,0.5625,137,202,162,144
71.070,15:20:30.070,-10.631836,-0.275391,0.835938,-0.094482,0.012695,-0.015869,0.,0.,0.,1.496582,-0.012695,0.057617,0.5625,146,204,168,146
71.170,15:20:30.170,-9.640625,-0.318359,-1.206055,-0.11377,-0.040283,-0.040283,0.,0.,0.,1.491943,-0.010742,0.05835,0.566406,153,195,164,144
71.270,15:20:30.270,-10.004883,0.432617,0.232422,-0.106201,0.063721,-0.032959,0.,0.,0.,1.485352,-0.013184,0.060059,0.570312,141,211,157,144
71.370,15:20:30.370,-9.34375,-0.893555,-1.799805,-0.135986,0.070068,-0.11377,0.,0.,0.,1.478271,-0.014404,0.05957,0.570312,133,238,156,141
71.470,15:20:30.470,-10.416016,0.108398,1.90918,-0.099854,0.049805,-0.046631,0.,0.,0.,1.47168,-0.012451,0.061523,0.570312,133,214,156,140
71.570,15:20:30.570,-9.43457,0.575195,-1.794922,-0.095703,-0.026367,0.131836,0.,0.,0.,1.467285,-0.014648,0.062012,0.578125,133,179,157,141
71.670,15:20:30.670,-10.755859,0.72168,0.954102,-0.069092,-0.013672,-0.041504,0.,0.,0.,1.462158,-0.018555,0.058838,0.578125,133,195,159,143
71.770,15:20:30.770,-10.354492,0.15625,1.163086,-0.075439,0.045654,-0.1521,0.,0.,0.,1.456787,-0.018066,0.056885,0.578125,133,220,159,144
71.870,15:20:30.870,-9.917969,-0.469727,0.645508,-0.090332,0.075439,-0.116943,0.,0.,0.,1.452637,-0.013672,0.052734,0.578125,131,221,160,146
71.970,15:20:30.970,-9.013672,0.303711,-0.498047,-0.064697,-0.076416,0.095703,0.,0.,0.,1.449707,-0.016602,0.053467,0.578125,129,223,158,151
72.070,15:20:31.070,-9.914062,-0.62207,-0.379883,-0.108398,0.04248,-0.010498,0.,0.,0.,1.444824,-0.019043,0.052979,0.578125,126,221,156,154
72.170,15:20:31.170,-10.53125,0.384766,0.759766,-0.093506,-0.025391,-0.087158,0.,0.,0.,1.439697,-0.018311,0.047363,0.578125,125,218,155,153
72.270,15:20:31.270,-9.832031,-0.018555,-0.987305,-0.126465,-0.047852,-0.091309,0.,0.,0.,1.434082,-0.018066,0.049072,0.578125,123,200,155,155
72.370,15:20:31.370,-9.43457,-0.34668,-0.227539,-0.125488,0.006348,0.019043,0.,0.,0.,1.425293,-0.020508,0.046631,0.578125,123,173,155,163
72.470,15:20:31.470,-9.291016,-0.033203,1.914062,-0.104248,0.076416,-0.00415,0.,0.,0.,1.417725,-0.02417,0.047363,0.578125,123,163,156,166
72.570,15:20:31.570,-9.952148,-0.655273,1.158203,-0.098877,0.039307,-0.030762,0.,0.,0.,1.411621,-0.025635,0.044922,0.578125,123,150,156,167
72.670,15:20:31.670,-9.922852,1.054688,-1.177734,-0.094482,-0.046631,-0.087158,0.,0.,0.,1.406494,-0.026855,0.046387,0.578125,120,148,156,168
72.770,15:20:31.770,-9.922852,1.054688,-1.177734,-0.094482,-0.046631,-0.087158,0.,0.,0.,1.406494,-0.026855,0.046387,0.578125,120,148,156,168
72.870,15:20:31.870,-9.836914,1.087891,-0.735352,-0.089355,-0.088135,0.046631,0.,0.,0.,1.388916,-0.019775,0.043945,0.582031,120,128,159,171
72.970,15:20:31.970,-9.574219,-0.40332,0.517578,-0.139404,-0.07959,-0.040283,0.,0.,0.,1.382324,-0.015381,0.04126,0.578125,130,135,161,172
73.070,15:20:32.070,-10.306641,0.860352,0.773438,-0.120117,0.142578,-0.007324,0.,0.,0.,1.375,-0.011475,0.046631,0.582031,130,140,162,175
73.170,15:20:32.170,-9.416016,-0.033203,0.332031,-0.104248,0.040283,-0.014893,0.,0.,0.,1.362305,-0.011719,0.054199,0.578125,118,119,166,192
73.270,15:20:32.270,-10.214844,1.150391,0.801758,-0.099854,0.045654,0.028564,0.,0.,0.,1.356445,-0.009521,0.055908,0.578125,130,122,169,198
73.370,15:20:32.370,-9.856445,-0.375,0.255859,-0.121094,0.041504,-0.057373,0.,0.,0.,1.348877,-0.011475,0.057129,0.582031,129,125,169,205
73.470,15:20:32.470,-9.856445,-0.375,0.255859,-0.121094,0.041504,-0.057373,0.,0.,0.,1.348877,-0.011475,0.057129,0.582031,129,125,169,205
73.570,15:20:32.570,-9.947266,0.194336,1.295898,-0.074463,0.036133,-0.074463,0.,0.,0.,1.343018,-0.009277,0.056641,0.585938,114,118,170,207
73.670,15:20:32.670,-9.947266,0.194336,1.295898,-0.074463,0.036133,-0.074463,0.,0.,0.,1.343018,-0.009277,0.056641,0.585938,114,118,170,207
73.770,15:20:32.770,-10.229492,-0.113281,0.431641,-0.099854,0.04248,-0.040283,0.,0.,0.,1.332764,-0.009033,0.052979,0.578125,108,113,174,205
73.870,15:20:32.870,-10.229492,-0.113281,0.431641,-0.099854,0.04248,-0.040283,0.,0.,0.,1.332764,-0.009033,0.052979,0.578125,108,113,174,205
73.970,15:20:32.970,-9.28125,-0.527344,-0.370117,-0.07959,-0.355225,0.170166,0.,0.,0.,1.327881,-0.00293,0.046631,0.578125,107,113,177,204
74.070,15:20:33.070,-9.28125,-0.527344,-0.370117,-0.07959,-0.355225,0.170166,0.,0.,0.,1.327881,-0.00293,0.046631,0.578125,107,113,177,204
74.170,15:20:33.170,-10.387695,1.454102,-0.041992,-0.034912,0.061523,-0.122314,0.,0.,0.,1.323242,0.023193,0.00708,0.597656,107,109,180,290
74.270,15:20:33.270,-9.822266,0.688477,-1.633789,-0.063721,0.054199,-0.056396,0.,0.,0.,1.320557,0.019531,0.023438,0.597656,107,107,182,254
74.370,15:20:33.370,-9.625977,0.541016,-0.882812,-0.057373,0.205322,0.09668,0.,0.,0.,1.317871,0.017334,0.033691,0.59375,106,106,190,202
74.470,15:20:33.470,-9.564453,-0.72168,-0.080078,-0.071289,0.062744,0.040283,0.,0.,0.,1.315674,0.012451,0.037842,0.585938,105,106,194,229
74.570,15:20:33.570,-10.435547,0.769531,0.393555,-0.067871,-0.098877,-0.23291,0.,0.,0.,1.311768,0.008301,0.039795,0.5625,104,105,188,270
74.670,15:20:33.670,-10.660156,0.013672,-2.080078,-0.112793,-0.066895,-0.171143,0.,0.,0.,1.308594,0.000977,0.037598,0.539062,104,105,187,254
74.770,15:20:33.770,-9.310547,-0.161133,-1.058594,-0.092529,0.540527,-0.198975,0.,0.,0.,1.293945,-0.007568,0.048096,0.5625,140,109,193,222
74.870,15:20:33.870,-8.90332,-0.532227,-0.607422,-0.070068,0.091309,0.003174,0.,0.,0.,1.289551,-0.02124,0.102783,0.5625,142,108,193,225
74.970,15:20:33.970,-9.109375,0.285156,-1.101562,-0.040283,-0.210693,0.033936,0.,0.,0.,1.2854,-0.023193,0.112793,0.570312,142,108,190,230
75.070,15:20:34.070,-9.444336,0.308594,0.317383,-0.040283,-0.067871,-0.04248,0.,0.,0.,1.285156,-0.017822,0.089844,0.585938,144,110,189,246
75.170,15:20:34.170,-9.338867,0.641602,-2.307617,-0.067871,-0.229736,-0.05957,0.,0.,0.,1.283936,-0.013916,0.076172,0.585938,146,112,187,270
75.270,15:20:34.270,-10.071289,0.427734,-0.612305,-0.054199,-0.015869,-0.011475,0.,0.,0.,1.281006,-0.014404,0.067139,0.578125,148,116,186,220
75.370,15:20:34.370,-10.038086,-0.974609,0.441406,-0.081787,-0.105225,-0.166992,0.,0.,0.,1.27832,-0.025146,0.060059,0.566406,131,116,186,187
75.470,15:20:34.470,-10.038086,-0.974609,0.441406,-0.081787,-0.105225,-0.166992,0.,0.,0.,1.27832,-0.025146,0.060059,0.566406,131,116,186,187
75.570,15:20:34.570,-10.038086,-0.974609,0.441406,-0.081787,-0.105225,-0.166992,0.,0.,0.,1.27832,-0.025146,0.060059,0.566406,131,116,186,187
75.670,15:20:34.670,-9.760742,-0.474609,-0.474609,-0.074463,-0.000977,0.083984,0.,0.,0.,1.268799,-0.020752,0.049316,0.5625,129,116,189,202
75.770,15:20:34.770,-9.760742,-0.474609,-0.474609,-0.074463,-0.000977,0.083984,0.,0.,0.,1.268799,-0.020752,0.049316,0.5625,129,116,189,202
75.870,15:20:34.870,-9.741211,0.332031,0.655273,-0.11377,-0.091309,-0.087158,0.,0.,0.,1.26416,-0.020508,0.05127,0.5625,141,116,186,212
75.970,15:20:34.970,-9.678711,-0.40332,0.930664,-0.083008,0.049805,-0.047852,0.,0.,0.,1.259521,-0.018799,0.050537,0.5625,150,110,185,211
76.070,15:20:35.070,-9.693359,0.323242,-0.355469,-0.087158,0.075439,0.237305,0.,0.,0.,1.25415,-0.01709,0.05127,0.558594,150,108,185,211
76.170,15:20:35.170,-9.793945,-0.422852,-1.086914,-0.092529,-0.039307,0.099854,0.,0.,0.,1.249268,-0.007812,0.052002,0.558594,151,107,187,209
76.270,15:20:35.270,-10.287109,-0.199219,1.224609,-0.088135,0.02124,0.072266,0.,0.,0.,1.244629,0.001465,0.053223,0.566406,137,107,190,208
76.370,15:20:35.370,-9.731445,-0.251953,0.,-0.089355,0.111572,-0.104248,0.,0.,0.,1.240234,0.013428,0.05542,0.574219,128,107,190,217
76.470,15:20:35.470,-9.310547,-0.365234,-0.275391,-0.076416,0.003174,-0.243652,0.,0.,0.,1.237061,0.012939,0.054199,0.578125,138,106,191,224
76.570,15:20:35.570,-9.310547,-0.365234,-0.275391,-0.076416,0.003174,-0.243652,0.,0.,0.,1.237061,0.012939,0.054199,0.578125,138,106,191,224
76.670,15:20:35.670,-9.243164,-0.056641,0.702148,-0.048828,0.061523,0.070068,0.,0.,0.,1.234863,-0.001953,0.052002,0.578125,148,106,189,207
76.770,15:20:35.770,-9.741211,-0.417969,1.362305,-0.04248,-0.031738,-0.014893,0.,0.,0.,1.231934,-0.004883,0.047852,0.574219,150,107,187,207
76.870,15:20:35.870,-9.741211,-0.417969,1.362305,-0.04248,-0.031738,-0.014893,0.,0.,0.,1.231934,-0.004883,0.047852,0.574219,150,107,187,207
76.970,15:20:35.970,-10.100586,0.537109,1.106445,-0.072266,-0.011475,-0.088135,0.,0.,0.,1.229492,-0.005371,0.049805,0.570312,150,106,184,207
77.070,15:20:36.070,-10.119141,0.336914,-0.479492,-0.034912,0.110596,-0.101074,0.,0.,0.,1.227051,-0.008789,0.047363,0.566406,149,106,186,206
77.170,15:20:36.170,-10.554688,-0.033203,0.678711,-0.071289,0.043457,-0.125488,0.,0.,0.,1.225098,-0.008057,0.045654,0.566406,146,106,190,205
77.270,15:20:36.270,-9.952148,-0.080078,-0.108398,-0.071289,0.012695,0.003174,0.,0.,0.,1.223633,-0.008301,0.047607,0.566406,146,106,190,203
77.370,15:20:36.370,-9.698242,-0.46582,0.707031,-0.098877,0.014893,-0.019043,0.,0.,0.,1.218018,-0.013672,0.044922,0.570312,146,107,185,203
77.470,15:20:36.470,-9.698242,0.746094,-0.041992,-0.055176,0.044678,-0.047852,0.,0.,0.,1.215576,-0.013428,0.04541,0.570312,148,107,178,203
77.570,15:20:36.570,-9.698242,0.746094,-0.041992,-0.055176,0.044678,-0.047852,0.,0.,0.,1.215576,-0.013428,0.04541,0.570312,148,107,178,203
77.670,15:20:36.670,-8.956055,0.242188,-0.854492,-0.063721,-0.001953,-0.048828,0.,0.,0.,1.210449,-0.011719,0.045898,0.578125,151,108,176,203
77.770,15:20:36.770,-8.956055,0.242188,-0.854492,-0.063721,-0.001953,-0.048828,0.,0.,0.,1.210449,-0.011719,0.045898,0.578125,151,108,176,203
77.870,15:20:36.870,-10.349609,0.151367,-0.393555,-0.125488,-0.00415,-0.077637,0.,0.,0.,1.186523,-0.02124,0.046143,0.5625,152,110,189,204
77.970,15:20:36.970,-9.62207,-0.066406,0.626953,-0.111572,-0.033936,-0.007324,0.,0.,0.,1.180908,-0.019775,0.045654,0.558594,152,111,179,213
78.070,15:20:37.070,-10.085938,-0.179688,1.391602,-0.05957,0.006348,-0.051025,0.,0.,0.,1.175049,-0.017822,0.048584,0.550781,152,109,173,212
78.170,15:20:37.170,-10.085938,-0.179688,1.391602,-0.05957,0.006348,-0.051025,0.,0.,0.,1.175049,-0.017822,0.048584,0.550781,152,109,173,212
78.270,15:20:37.270,-9.31543,0.527344,-1.381836,-0.088135,0.099854,0.067871,0.,0.,0.,1.170654,-0.013184,0.051025,0.546875,152,109,170,203
78.370,15:20:37.370,-10.330078,0.080078,0.123047,-0.111572,0.072266,0.167969,0.,0.,0.,1.165283,-0.012939,0.047852,0.546875,153,110,168,199
78.470,15:20:37.470,-10.330078,0.080078,0.123047,-0.111572,0.072266,0.167969,0.,0.,0.,1.165283,-0.012939,0.047852,0.546875,153,110,168,199
78.570,15:20:37.570,-9.353516,-0.080078,-0.526367,-0.063721,-0.080811,-0.089355,0.,0.,0.,1.160889,-0.005371,0.050049,0.550781,150,111,167,197
78.670,15:20:37.670,-9.353516,-0.080078,-0.526367,-0.063721,-0.080811,-0.089355,0.,0.,0.,1.160889,-0.005371,0.050049,0.550781,150,111,167,197
78.770,15:20:37.770,-9.914062,1.202148,-0.242188,-0.076416,0.087158,-0.030762,0.,0.,0.,1.151855,-0.013672,0.052002,0.5625,149,113,166,194
78.870,15:20:37.870,-9.914062,1.202148,-0.242188,-0.076416,0.087158,-0.030762,0.,0.,0.,1.151855,-0.013672,0.052002,0.5625,149,113,166,194
78.970,15:20:37.970,-10.349609,-0.298828,0.40332,-0.066895,0.073242,-0.150879,0.,0.,0.,1.147461,-0.018555,0.046875,0.5625,156,111,166,193
79.070,15:20:38.070,-9.894531,-0.166016,-0.626953,-0.066895,-0.074463,-0.130859,0.,0.,0.,1.146729,-0.020264,0.051025,0.5625,156,110,165,192
79.170,15:20:38.170,-9.62207,1.458984,-2.293945,-0.045654,-0.057373,-0.034912,0.,0.,0.,1.141357,-0.003418,0.052979,0.570312,159,111,164,186
79.270,15:20:38.270,-9.612305,-0.417969,-0.426758,-0.070068,0.028564,-0.010498,0.,0.,0.,1.139404,-0.007324,0.054688,0.570312,158,112,164,184
79.370,15:20:38.370,-10.15332,0.18457,1.158203,-0.070068,0.032959,-0.115967,0.,0.,0.,1.13501,-0.011475,0.053711,0.570312,158,112,163,182
79.470,15:20:38.470,-10.15332,0.18457,1.158203,-0.070068,0.032959,-0.115967,0.,0.,0.,1.13501,-0.011475,0.053711,0.570312,158,112,163,182
79.570,15:20:38.570,-10.15332,0.18457,1.158203,-0.070068,0.032959,-0.115967,0.,0.,0.,1.13501,-0.011475,0.053711,0.570312,158,112,163,182
79.670,15:20:38.670,-10.15332,0.18457,1.158203,-0.070068,0.032959,-0.115967,0.,0.,0.,1.13501,-0.011475,0.053711,0.570312,158,112,163,182
79.770,15:20:38.770,-10.15332,0.18457,1.158203,-0.070068,0.032959,-0.115967,0.,0.,0.,1.13501,-0.011475,0.053711,0.570312,158,112,163,182
79.870,15:20:38.870,-9.726562,-0.318359,1.224609,-0.078613,0.014893,0.02002,0.,0.,0.,1.124512,-0.013428,0.056152,0.585938,162,115,159,174
79.970,15:20:38.970,-9.726562,-0.318359,1.224609,-0.078613,0.014893,0.02002,0.,0.,0.,1.124512,-0.013428,0.056152,0.585938,162,115,159,174
80.070,15:20:39.070,-9.914062,0.360352,0.317383,-0.067871,0.063721,-0.024414,0.,0.,0.,1.121582,-0.012695,0.055664,0.585938,164,115,159,173
80.170,15:20:39.170,-9.832031,1.207031,-1.030273,-0.060547,-0.018066,-0.024414,0.,0.,0.,1.118164,-0.018311,0.055176,0.585938,165,115,159,172
80.270,15:20:39.270,-9.429688,-0.227539,-1.486328,-0.061523,-0.045654,0.033936,0.,0.,0.,1.115234,-0.020264,0.053711,0.585938,168,115,158,169
80.370,15:20:39.370,-9.779297,-0.84082,-0.859375,-0.075439,0.,-0.041504,0.,0.,0.,1.111328,-0.019043,0.055908,0.585938,168,114,158,168
80.470,15:20:39.470,-9.607422,0.613281,-0.255859,-0.076416,0.070068,-0.027588,0.,0.,0.,1.106934,-0.01709,0.054443,0.589844,169,114,158,166
80.570,15:20:39.570,-9.607422,0.613281,-0.255859,-0.076416,0.070068,-0.027588,0.,0.,0.,1.106934,-0.01709,0.054443,0.589844,169,114,158,166
80.670,15:20:39.670,-9.31543,0.588867,-0.293945,-0.064697,-0.067871,0.022217,0.,0.,0.,1.099854,-0.012939,0.056641,0.589844,172,114,159,163
80.770,15:20:39.770,-9.31543,0.588867,-0.293945,-0.064697,-0.067871,0.022217,0.,0.,0.,1.099854,-0.012939,0.056641,0.589844,172,114,159,163
80.870,15:20:39.870,-9.31543,0.588867,-0.293945,-0.064697,-0.067871,0.022217,0.,0.,0.,1.099854,-0.012939,0.056641,0.589844,172,114,159,163
80.970,15:20:39.970,-10.31543,-0.170898,0.555664,-0.065918,-0.052979,-0.044678,0.,0.,0.,1.095459,-0.008301,0.05249,0.582031,177,113,160,159
81.070,15:20:40.070,-9.25293,0.232422,-0.764648,-0.057373,0.120117,0.044678,0.,0.,0.,1.090576,-0.006592,0.052734,0.578125,223,111,162,156
81.170,15:20:40.170,-10.84668,0.40332,0.726562,-0.072266,-0.023193,0.008301,0.,0.,0.,1.089355,-0.010498,0.050781,0.578125,194,110,164,156
81.270,15:20:40.270,-9.229492,0.370117,0.788086,-0.052979,-0.029785,0.,0.,0.,0.,1.087158,-0.008789,0.05127,0.578125,175,110,164,156
81.370,15:20:40.370,-10.363281,-0.161133,0.754883,-0.071289,0.107422,-0.110596,0.,0.,0.,1.084961,0.002441,0.050049,0.578125,176,109,164,156
81.470,15:20:40.470,-9.884766,0.59375,0.745117,-0.076416,0.022217,0.04248,0.,0.,0.,1.08374,0.004883,0.049316,0.578125,177,108,164,153
81.570,15:20:40.570,-9.884766,0.59375,0.745117,-0.076416,0.022217,0.04248,0.,0.,0.,1.08374,0.004883,0.049316,0.578125,177,108,164,153
81.670,15:20:40.670,-10.206055,-0.208984,-0.094727,-0.086182,-0.065918,-0.09668,0.,0.,0.,1.078613,-0.00293,0.045898,0.578125,179,106,167,150
81.770,15:20:40.770,-9.325195,-0.507812,0.089844,-0.087158,-0.000977,-0.091309,0.,0.,0.,1.075439,0.001953,0.045166,0.582031,180,106,170,149
81.870,15:20:40.870,-9.325195,-0.507812,0.089844,-0.087158,-0.000977,-0.091309,0.,0.,0.,1.075439,0.001953,0.045166,0.582031,180,106,170,149
81.970,15:20:40.970,-9.391602,-0.912109,0.398438,-0.052002,0.026367,0.015869,0.,0.,0.,1.072021,0.002686,0.04126,0.582031,182,106,172,145
82.070,15:20:41.070,-10.186523,0.579102,0.911133,-0.071289,-0.099854,-0.016846,0.,0.,0.,1.069824,-0.001221,0.043213,0.585938,183,106,169,142
82.170,15:20:41.170,-9.774414,0.008789,0.413086,-0.051025,0.056396,-0.043457,0.,0.,0.,1.06958,-0.003662,0.04541,0.585938,184,106,166,141
82.270,15:20:41.270,-8.017578,0.013672,-0.911133,-0.05835,0.008301,-0.022217,0.,0.,0.,1.070068,-0.002686,0.041504,0.589844,186,107,165,138
82.370,15:20:41.370,-7.18457,0.170898,0.740234,-0.026367,0.003174,0.036133,0.,0.,0.,1.07251,-0.003418,0.040771,0.585938,189,107,164,137
82.470,15:20:41.470,-5.567383,0.094727,1.091797,-0.036133,0.052979,-0.195801,0.,0.,0.,1.074463,-0.001221,0.037842,0.582031,190,108,164,134
82.570,15:20:41.570,-4.800781,0.427734,-0.469727,-0.045654,-0.161621,0.001953,0.,0.,0.,1.077881,-0.001953,0.034668,0.558594,193,108,164,133
82.670,15:20:41.670,-4.652344,-0.494141,-2.018555,-0.056396,0.001953,-0.067871,0.,0.,0.,1.080322,-0.00293,0.033936,0.5,195,108,163,130
82.770,15:20:41.770,-4.911133,-0.802734,-2.189453,-0.033936,0.176514,0.080811,0.,0.,0.,1.082275,-0.002197,0.031006,0.359375,199,109,162,128
82.870,15:20:41.870,-0.051758,2.756836,-1.790039,-0.000977,-0.960938,-0.587402,0.,0.,0.,1.105469,-0.006348,-0.147949,0.277344,103,99,158,124
82.970,15:20:41.970,-0.051758,2.756836,-1.790039,-0.000977,-0.960938,-0.587402,0.,0.,0.,1.105469,-0.006348,-0.147949,0.277344,103,99,158,124
83.070,15:20:42.070,-2.115234,1.130859,-0.826172,0.09668,-1.190674,0.131836,0.,0.,0.,1.125244,0.014648,-0.26416,0.277344,105,92,158,123
83.170,15:20:42.170,-51.93457,5.566406,-25.240234,0.407471,-2.816895,-0.57251,0.,0.,0.,1.145508,0.037109,-0.38501,0.277344,183,105,159,122
83.270,15:20:42.270,-6.634766,0.945312,21.193359,0.407471,-0.25415,-2.203857,0.,0.,0.,1.250732,-0.164307,-0.36792,0.277344,213,115,159,120
83.370,15:20:42.370,5.533203,3.741211,-2.388672,0.5979,6.15625,6.531006,0.,0.,0.,1.307129,-0.241943,-0.259033,0.277344,225,116,159,120
83.470,15:20:42.470,-10.74707,2.390625,10.273438,0.338379,4.276855,6.081787,0.,0.,0.,1.288574,-0.001465,0.106689,0.277344,226,118,161,122
83.570,15:20:42.570,-8.817383,-1.677734,7.128906,0.261719,0.493652,0.619141,0.,0.,0.,1.35791,0.229004,0.276611,0.207031,220,70,163,123
83.670,15:20:42.670,-7.916992,-3.013672,3.295898,0.203125,-1.371582,-0.879883,0.,0.,0.,1.372559,0.237549,0.22168,0.203125,214,38,167,123
83.770,15:20:42.770,-26.333008,1.254883,-5.15332,-0.057373,-2.317627,-4.831299,0.,0.,0.,1.358398,-0.031982,0.006104,0.203125,209,87,170,125
83.870,15:20:42.870,-26.333008,1.254883,-5.15332,-0.057373,-2.317627,-4.831299,0.,0.,0.,1.358398,-0.031982,0.006104,0.203125,209,87,170,125
83.970,15:20:42.970,-10.775391,3.545898,-1.756836,0.22876,1.686768,3.29248,0.,0.,0.,1.369141,-0.077148,0.021973,0.222656,211,73,172,126
84.070,15:20:43.070,-9.396484,-6.084961,2.075195,-0.00415,-0.148926,-0.599121,0.,0.,0.,1.385986,0.14624,0.095703,0.230469,211,41,173,123
84.170,15:20:43.170,-13.432617,6.161133,-2.003906,-0.218018,-0.389404,-3.224365,0.,0.,0.,1.377686,-0.074219,0.022217,0.222656,212,90,174,125
84.270,15:20:43.270,-7.180664,3.02832,0.237305,0.05835,0.3479,1.494141,0.,0.,0.,1.383057,-0.109619,0.039307,0.234375,193,123,173,128
84.370,15:20:43.370,-7.500977,-3.327148,-0.773438,0.048828,-0.065918,0.651123,0.,0.,0.,1.400391,0.076904,0.043457,0.238281,166,75,173,126
84.470,15:20:43.470,-8.109375,4.145508,-0.250977,0.140381,-0.101074,-0.57251,0.,0.,0.,1.394531,-0.07666,0.041992,0.238281,162,60,173,124
84.570,15:20:43.570,-12.25,-2.238281,-0.455078,0.093506,0.220215,2.116699,0.,0.,0.,1.406006,0.001465,0.04126,0.242188,156,108,173,125
84.670,15:20:43.670,-9.774414,2.5,-0.469727,-0.016846,-0.243652,-1.520752,0.,0.,0.,1.407959,-0.029053,0.042725,0.242188,155,124,174,127
84.770,15:20:43.770,-9.310547,-2.314453,0.255859,-0.001953,0.260498,0.740479,0.,0.,0.,1.415771,0.,0.043945,0.242188,154,126,175,127
84.870,15:20:43.870,-9.310547,-2.314453,0.255859,-0.001953,0.260498,0.740479,0.,0.,0.,1.415771,0.,0.043945,0.242188,154,126,175,127
84.970,15:20:43.970,-9.645508,-0.308594,0.451172,-0.023193,-0.062744,-0.337158,0.,0.,0.,1.424805,-0.012207,0.045898,0.242188,156,126,175,127
85.070,15:20:44.070,-9.879883,0.275391,-0.237305,-0.014893,-0.02002,-0.080811,0.,0.,0.,1.439941,-0.017334,0.041504,0.242188,155,125,176,128
85.170,15:20:44.170,-9.736328,0.,-0.089844,-0.013672,-0.015869,-0.066895,0.,0.,0.,1.445068,-0.015381,0.04248,0.242188,155,124,176,128
85.270,15:20:44.270,-9.779297,0.033203,0.013672,-0.011475,0.012695,-0.00415,0.,0.,0.,1.449951,-0.015381,0.04248,0.246094,189,124,176,128
85.370,15:20:44.370,-9.779297,0.033203,0.013672,-0.011475,0.012695,-0.00415,0.,0.,0.,1.449951,-0.015381,0.04248,0.246094,189,124,176,128
85.470,15:20:44.470,-9.793945,0.151367,0.046875,-0.011475,0.025391,0.003174,0.,0.,0.,1.454834,-0.016113,0.042236,0.246094,213,124,177,128
85.570,15:20:44.570,-9.793945,0.151367,0.046875,-0.011475,0.025391,0.003174,0.,0.,0.,1.454834,-0.016113,0.042236,0.246094,213,124,177,128
85.670,15:20:44.670,-9.793945,0.151367,0.046875,-0.011475,0.025391,0.003174,0.,0.,0.,1.454834,-0.016113,0.042236,0.246094,213,124,177,128
85.770,15:20:44.770,-9.84668,0.123047,-0.023438,-0.012695,0.02124,-0.043457,0.,0.,0.,1.464355,-0.015869,0.041992,0.246094,166,124,179,128
85.870,15:20:44.870,-9.84668,0.123047,-0.023438,-0.012695,0.02124,-0.043457,0.,0.,0.,1.464355,-0.015869,0.041992,0.246094,166,124,179,128
85.970,15:20:44.970,-9.774414,0.080078,-0.066406,-0.010498,0.013672,-0.02124,0.,0.,0.,1.474121,-0.015381,0.041992,0.242188,188,123,180,128
86.070,15:20:45.070,-9.765625,0.137695,-0.033203,-0.013672,0.015869,-0.02002,0.,0.,0.,1.47876,-0.015625,0.041992,0.242188,169,123,180,128
86.170,15:20:45.170,-9.726562,0.170898,-0.041992,-0.013672,0.014893,-0.024414,0.,0.,0.,1.483643,-0.015625,0.041992,0.242188,157,124,181,128
86.270,15:20:45.270,-9.803711,0.132812,-0.108398,-0.010498,0.014893,-0.027588,0.,0.,0.,1.488525,-0.015381,0.041748,0.242188,156,123,181,129
86.370,15:20:45.370,-9.774414,0.18457,-0.066406,-0.011475,0.018066,-0.029785,0.,0.,0.,1.493408,-0.015137,0.041748,0.246094,156,123,181,129
86.470,15:20:45.470,-9.832031,0.142578,-0.080078,-0.013672,0.018066,-0.025391,0.,0.,0.,1.498047,-0.015137,0.041748,0.246094,156,122,182,129
86.570,15:20:45.570,-9.78418,0.12793,-0.104492,-0.014893,0.022217,-0.023193,0.,0.,0.,1.502686,-0.014893,0.041748,0.246094,156,121,181,129
86.670,15:20:45.670,-9.832031,0.170898,-0.12793,-0.011475,0.015869,-0.023193,0.,0.,0.,1.507568,-0.014893,0.041748,0.246094,157,121,180,129
86.770,15:20:45.770,-9.793945,0.113281,-0.051758,-0.010498,0.016846,-0.025391,0.,0.,0.,1.512207,-0.014893,0.041748,0.246094,158,121,180,129
86.870,15:20:45.870,-9.793945,0.113281,-0.051758,-0.010498,0.016846,-0.025391,0.,0.,0.,1.512207,-0.014893,0.041748,0.246094,158,121,180,129
86.970,15:20:45.970,-9.72168,0.037109,-0.075195,-0.010498,0.015869,-0.026367,0.,0.,0.,1.52124,-0.014404,0.041748,0.246094,200,120,178,129
87.070,15:20:46.070,-9.818359,0.189453,-0.089844,-0.014893,0.014893,-0.025391,0.,0.,0.,1.525879,-0.014404,0.041748,0.246094,167,120,175,129
87.170,15:20:46.170,-9.698242,0.18457,-0.070312,-0.011475,0.015869,-0.024414,0.,0.,0.,1.530273,-0.014404,0.041748,0.246094,142,121,177,129
87.270,15:20:46.270,-9.798828,0.12793,-0.051758,-0.013672,0.02002,-0.025391,0.,0.,0.,1.534668,-0.014404,0.041748,0.246094,103,121,181,130
87.370,15:20:46.370,-9.760742,0.113281,-0.089844,-0.009521,0.015869,-0.026367,0.,0.,0.,1.539062,-0.01416,0.041504,0.246094,115,121,178,130
87.470,15:20:46.470,-9.789062,0.146484,-0.070312,-0.010498,0.018066,-0.027588,0.,0.,0.,1.543701,-0.01416,0.041504,0.246094,190,120,175,130
87.570,15:20:46.570,-9.827148,0.118164,-0.075195,-0.011475,0.016846,-0.024414,0.,0.,0.,1.548096,-0.013916,0.041504,0.242188,213,120,175,130
87.670,15:20:46.670,-9.793945,0.089844,-0.066406,-0.012695,0.014893,-0.026367,0.,0.,0.,1.55249,-0.013916,0.041504,0.246094,207,119,175,130
87.770,15:20:46.770,-9.731445,0.232422,-0.104492,-0.013672,0.015869,-0.025391,0.,0.,0.,1.556885,-0.013916,0.041504,0.242188,194,119,175,130
87.870,15:20:46.870,-9.813477,0.161133,-0.033203,-0.012695,0.016846,-0.025391,0.,0.,0.,1.561279,-0.013672,0.041504,0.242188,164,119,176,129
87.970,15:20:46.970,-9.736328,0.123047,-0.084961,-0.011475,0.018066,-0.023193,0.,0.,0.,1.565674,-0.013672,0.041504,0.242188,154,119,176,129
88.070,15:20:47.070,-9.765625,0.166016,-0.075195,-0.013672,0.019043,-0.025391,0.,0.,0.,1.570068,-0.013672,0.041504,0.242188,154,119,177,129
88.170,15:20:47.170,-9.731445,0.099609,-0.046875,-0.013672,0.016846,-0.026367,0.,0.,0.,1.574463,-0.013428,0.04126,0.246094,154,119,176,129
88.270,15:20:47.270,-9.793945,0.094727,-0.008789,-0.012695,0.018066,-0.026367,0.,0.,0.,1.578857,-0.013428,0.04126,0.246094,154,118,176,129
88.370,15:20:47.370,-9.789062,0.151367,0.,-0.012695,0.016846,-0.024414,0.,0.,0.,1.583008,-0.013428,0.04126,0.246094,161,118,177,129
88.470,15:20:47.470,-9.822266,0.123047,-0.089844,-0.012695,0.018066,-0.025391,0.,0.,0.,1.587158,-0.013428,0.04126,0.242188,182,118,178,130
88.570,15:20:47.570,-9.822266,0.123047,-0.089844,-0.012695,0.018066,-0.025391,0.,0.,0.,1.587158,-0.013428,0.04126,0.242188,182,118,178,130
88.670,15:20:47.670,-9.822266,0.123047,-0.089844,-0.012695,0.018066,-0.025391,0.,0.,0.,1.587158,-0.013428,0.04126,0.242188,182,118,178,130
88.770,15:20:47.770,-9.741211,0.213867,-0.123047,-0.011475,0.02002,-0.026367,0.,0.,0.,1.599609,-0.012939,0.04126,0.246094,156,118,178,130
88.870,15:20:47.870,-9.813477,0.071289,-0.046875,-0.011475,0.013672,-0.026367,0.,0.,0.,1.60376,-0.012939,0.04126,0.242188,156,118,179,130
88.970,15:20:47.970,-9.726562,0.151367,-0.051758,-0.012695,0.015869,-0.025391,0.,0.,0.,1.60791,-0.012939,0.04126,0.246094,154,118,179,130
89.070,15:20:48.070,-9.803711,0.094727,-0.046875,-0.010498,0.018066,-0.027588,0.,0.,0.,1.612061,-0.012939,0.04126,0.242188,153,118,179,130
89.170,15:20:48.170,-9.827148,0.132812,-0.037109,-0.012695,0.016846,-0.024414,0.,0.,0.,1.616211,-0.012695,0.041016,0.242188,153,118,181,131
89.270,15:20:48.270,-9.889648,0.151367,-0.084961,-0.011475,0.02002,-0.026367,0.,0.,0.,1.620361,-0.012695,0.041016,0.242188,154,117,183,130
89.370,15:20:48.370,-9.827148,0.089844,-0.075195,-0.012695,0.019043,-0.024414,0.,0.,0.,1.624268,-0.012695,0.041016,0.242188,154,117,181,129
89.470,15:20:48.470,-9.770508,0.113281,-0.099609,-0.013672,0.015869,-0.028564,0.,0.,0.,1.628174,-0.012451,0.041016,0.242188,154,117,180,128
89.570,15:20:48.570,-9.765625,0.084961,-0.104492,-0.011475,0.013672,-0.025391,0.,0.,0.,1.63208,-0.012451,0.040771,0.246094,154,117,180,128
89.670,15:20:48.670,-9.808594,0.118164,-0.013672,-0.009521,0.014893,-0.024414,0.,0.,0.,1.63623,-0.012451,0.040771,0.246094,154,117,180,128
89.770,15:20:48.770,-9.808594,0.166016,-0.033203,-0.012695,0.016846,-0.024414,0.,0.,0.,1.639893,-0.012207,0.040771,0.242188,154,117,180,128
