Time,UTC,FINKEN_SENSOR_MODEL:acceleration_z,FINKEN_SENSOR_MODEL:acceleration_y,FINKEN_SENSOR_MODEL:acceleration_x,FINKEN_SENSOR_MODEL:velocity_yaw,FINKEN_SENSOR_MODEL:velocity_roll,FINKEN_SENSOR_MODEL:velocity_pitch,FINKEN_SENSOR_MODEL:velocity_z,FINKEN_SENSOR_MODEL:velocity_y,FINKEN_SENSOR_MODEL:velocity_x,FINKEN_SENSOR_MODEL:pos_yaw,FINKEN_SENSOR_MODEL:pos_roll,FINKEN_SENSOR_MODEL:pos_pitch,FINKEN_SENSOR_MODEL:pos_z,FINKEN_SENSOR_MODEL:distance_d_back,FINKEN_SENSOR_MODEL:distance_d_left,FINKEN_SENSOR_MODEL:distance_d_rigth,FINKEN_SENSOR_MODEL:distance_d_front
1.851,14:28:42.851,-9.373047,-0.460938,-1.040039,-0.025391,-0.011475,-0.028564,0.,0.,0.,2.828369,-0.012695,0.049805,0.242188,98,43,53,298
1.951,14:28:42.951,-9.243164,0.755859,-0.003906,-0.041504,0.027588,-0.073242,0.,0.,0.,2.828857,-0.012451,0.049561,0.242188,99,43,51,296
2.051,14:28:43.051,-9.243164,0.755859,-0.003906,-0.041504,0.027588,-0.073242,0.,0.,0.,2.828857,-0.012451,0.049561,0.242188,99,43,51,296
2.151,14:28:43.151,-10.669922,0.199219,1.362305,0.019043,0.111572,-0.039307,0.,0.,0.,2.829346,-0.012451,0.049316,0.242188,100,43,51,296
2.251,14:28:43.251,-9.703125,-0.456055,-0.037109,-0.010498,-0.066895,-0.064697,0.,0.,0.,2.829102,-0.011963,0.049316,0.242188,101,43,52,296
2.351,14:28:43.351,-9.750977,-0.213867,-1.287109,-0.028564,0.066895,0.007324,0.,0.,0.,2.829102,-0.011963,0.050049,0.242188,101,43,51,298
2.451,14:28:43.451,-9.133789,-0.308594,0.455078,-0.023193,0.014893,-0.02002,0.,0.,0.,2.829102,-0.012207,0.049561,0.242188,100,43,51,298
2.551,14:28:43.551,-8.845703,0.869141,-0.308594,-0.031738,0.006348,0.005127,0.,0.,0.,2.82959,-0.011963,0.049805,0.242188,100,43,51,296
2.651,14:28:43.651,-10.871094,-0.379883,0.844727,0.001953,-0.048828,0.016846,0.,0.,0.,2.82959,-0.012207,0.049316,0.242188,100,43,51,295
2.751,14:28:43.751,-10.339844,0.669922,-1.058594,-0.02002,-0.052002,-0.066895,0.,0.,0.,2.82959,-0.012207,0.049561,0.242188,100,43,51,295
2.851,14:28:43.851,-10.009766,-0.265625,0.745117,-0.027588,0.155273,-0.006348,0.,0.,0.,2.830078,-0.012451,0.049805,0.242188,102,43,52,295
2.951,14:28:43.951,-8.616211,0.15625,0.327148,-0.013672,0.027588,-0.009521,0.,0.,0.,2.830078,-0.012695,0.049316,0.242188,102,43,52,297
3.051,14:28:44.051,-9.133789,-0.356445,-0.298828,-0.011475,0.006348,0.037109,0.,0.,0.,2.830322,-0.012695,0.049316,0.242188,102,43,52,296
3.151,14:28:44.151,-9.133789,-0.356445,-0.298828,-0.011475,0.006348,0.037109,0.,0.,0.,2.830322,-0.012695,0.049316,0.242188,102,43,52,296
3.251,14:28:44.251,-10.411133,-0.232422,-1.025391,0.001953,-0.056396,0.014893,0.,0.,0.,2.830566,-0.012695,0.049316,0.242188,102,43,52,295
3.351,14:28:44.351,-9.171875,0.860352,-0.55957,-0.048828,0.,-0.016846,0.,0.,0.,2.830811,-0.012695,0.049316,0.242188,103,43,52,295
3.451,14:28:44.451,-9.678711,0.108398,0.451172,-0.009521,-0.05957,-0.04248,0.,0.,0.,2.830566,-0.012939,0.048828,0.242188,105,43,52,296
3.551,14:28:44.551,-9.836914,-0.265625,-1.428711,-0.000977,0.098877,0.005127,0.,0.,0.,2.830811,-0.012451,0.049561,0.242188,105,43,52,296
3.651,14:28:44.651,-9.243164,-0.075195,-0.161133,-0.02002,0.006348,-0.041504,0.,0.,0.,2.830811,-0.012451,0.049316,0.242188,106,43,51,297
3.751,14:28:44.751,-9.137695,0.717773,0.151367,-0.019043,0.07959,0.027588,0.,0.,0.,2.831055,-0.012451,0.049316,0.242188,108,43,51,299
3.851,14:28:44.851,-10.986328,-0.137695,1.006836,-0.008301,-0.084961,-0.026367,0.,0.,0.,2.831055,-0.012939,0.048584,0.242188,111,43,51,297
3.951,14:28:44.951,-10.0625,0.688477,-0.754883,-0.006348,-0.008301,-0.05835,0.,0.,0.,2.831299,-0.013184,0.049316,0.242188,108,43,51,295
4.051,14:28:45.051,-10.669922,-0.099609,0.375,-0.033936,0.186035,-0.069092,0.,0.,0.,2.831543,-0.012695,0.049561,0.242188,105,43,51,295
4.151,14:28:45.151,-10.669922,-0.099609,0.375,-0.033936,0.186035,-0.069092,0.,0.,0.,2.831543,-0.012695,0.049561,0.242188,105,43,51,295
4.251,14:28:45.251,-10.669922,-0.099609,0.375,-0.033936,0.186035,-0.069092,0.,0.,0.,2.831543,-0.012695,0.049561,0.242188,105,43,51,295
4.351,14:28:45.351,-10.669922,-0.099609,0.375,-0.033936,0.186035,-0.069092,0.,0.,0.,2.831543,-0.012695,0.049561,0.242188,105,43,51,295
4.451,14:28:45.451,-10.669922,-0.099609,0.375,-0.033936,0.186035,-0.069092,0.,0.,0.,2.831543,-0.012695,0.049561,0.242188,105,43,51,295
4.551,14:28:45.551,-11.182617,-0.199219,0.212891,0.010498,0.11792,0.143555,0.,0.,0.,2.874756,0.043945,0.059326,0.980469,107,104,166,280
4.651,14:28:45.651,-11.134766,-1.46875,-1.466797,-0.009521,0.129639,-0.000977,0.,0.,0.,2.878174,0.05127,0.068115,0.933594,109,102,166,277
4.751,14:28:45.751,-11.100586,-0.280273,0.066406,0.039307,0.101074,-0.039307,0.,0.,0.,2.881348,0.050293,0.074219,0.914062,112,101,168,275
4.851,14:28:45.851,-10.272461,-0.850586,0.108398,-0.008301,0.046631,-0.222412,0.,0.,0.,2.900879,0.012695,0.068115,0.882812,122,105,163,261
4.951,14:28:45.951,-10.798828,-0.270508,-0.303711,0.005127,-0.104248,-0.202148,0.,0.,0.,2.904541,0.004639,0.065918,0.871094,123,107,160,260
5.051,14:28:46.051,-9.879883,0.446289,1.239258,-0.023193,-0.221191,-0.252197,0.,0.,0.,2.906494,0.001709,0.063232,0.914062,125,110,159,260
5.151,14:28:46.151,-9.879883,0.446289,1.239258,-0.023193,-0.221191,-0.252197,0.,0.,0.,2.906494,0.001709,0.063232,0.914062,125,110,159,260
5.251,14:28:46.251,-8.822266,-0.379883,-0.293945,-0.005127,-0.066895,-0.047852,0.,0.,0.,2.916016,-0.040283,0.033203,0.988281,128,125,145,258
5.351,14:28:46.351,-8.822266,-0.379883,-0.293945,-0.005127,-0.066895,-0.047852,0.,0.,0.,2.916016,-0.040283,0.033203,0.988281,128,125,145,258
5.451,14:28:46.451,-10.68457,-0.432617,0.146484,-0.02002,0.074463,-0.064697,0.,0.,0.,2.922852,-0.005127,0.045898,0.6875,131,142,131,260
5.551,14:28:46.551,-10.68457,-0.432617,0.146484,-0.02002,0.074463,-0.064697,0.,0.,0.,2.922852,-0.005127,0.045898,0.6875,131,142,131,260
5.651,14:28:46.651,-10.038086,-0.175781,0.90625,-0.063721,-0.007324,0.089355,0.,0.,0.,2.92334,-0.000488,0.045166,0.6875,130,143,128,260
5.751,14:28:46.751,-9.625977,-0.731445,-0.008789,-0.038086,0.005127,0.052002,0.,0.,0.,2.922852,-0.001221,0.044189,0.6875,130,143,126,260
5.851,14:28:46.851,-9.625977,-0.731445,-0.008789,-0.038086,0.005127,0.052002,0.,0.,0.,2.922852,-0.001221,0.044189,0.6875,130,143,126,260
5.951,14:28:46.951,-9.25293,0.222656,0.113281,-0.030762,0.,-0.075439,0.,0.,0.,2.922363,0.001953,0.04248,0.703125,130,150,119,260
6.051,14:28:47.051,-9.665039,0.883789,-0.242188,-0.043457,-0.008301,0.029785,0.,0.,0.,2.921387,-0.002441,0.040283,0.6875,127,157,112,261
6.151,14:28:47.151,-9.463867,-0.907227,-0.892578,-0.04248,-0.091309,-0.218994,0.,0.,0.,2.920898,-0.010254,0.041748,0.6875,127,161,109,260
6.251,14:28:47.251,-9.128906,-0.084961,-0.355469,-0.041504,-0.000977,-0.171143,0.,0.,0.,2.920898,-0.020264,0.042236,0.6875,127,163,106,260
6.351,14:28:47.351,-9.128906,-0.084961,-0.355469,-0.041504,-0.000977,-0.171143,0.,0.,0.,2.920898,-0.020264,0.042236,0.6875,127,163,106,260
6.451,14:28:47.451,-9.128906,-0.084961,-0.355469,-0.041504,-0.000977,-0.171143,0.,0.,0.,2.920898,-0.020264,0.042236,0.6875,127,163,106,260
6.551,14:28:47.551,-10.239258,1.563477,1.723633,-0.031738,0.0979,-0.073242,0.,0.,0.,2.919922,-0.042969,0.042236,0.671875,125,173,98,206
6.651,14:28:47.651,-10.239258,1.563477,1.723633,-0.031738,0.0979,-0.073242,0.,0.,0.,2.919922,-0.042969,0.042236,0.671875,125,173,98,206
6.751,14:28:47.751,-9.099609,0.641602,0.645508,-0.016846,0.110596,-0.103027,0.,0.,0.,2.919189,-0.037598,0.041748,0.671875,125,176,95,238
6.851,14:28:47.851,-9.62207,0.831055,-0.612305,-0.025391,-0.030762,-0.031738,0.,0.,0.,2.918457,-0.034424,0.041992,0.671875,124,178,92,260
6.951,14:28:47.951,-8.994141,-0.199219,0.977539,-0.047852,-0.047852,-0.062744,0.,0.,0.,2.917725,-0.03418,0.043457,0.671875,124,179,90,258
7.051,14:28:48.051,-9.841797,-0.313477,-0.388672,-0.044678,0.001953,0.046631,0.,0.,0.,2.917236,-0.04126,0.046631,0.664062,123,179,88,258
7.151,14:28:48.151,-10.521484,0.545898,-1.300781,-0.027588,0.006348,0.11377,0.,0.,0.,2.917236,-0.038574,0.049805,0.578125,123,180,87,220
7.251,14:28:48.251,-10.158203,0.446289,-0.550781,-0.033936,0.022217,0.02002,0.,0.,0.,2.917236,-0.028076,0.047363,0.570312,122,165,89,258
7.351,14:28:48.351,-10.158203,0.446289,-0.550781,-0.033936,0.022217,0.02002,0.,0.,0.,2.917236,-0.028076,0.047363,0.570312,122,165,89,258
7.451,14:28:48.451,-10.081055,-0.232422,-0.773438,-0.061523,0.032959,0.089355,0.,0.,0.,2.91748,-0.01709,0.046387,0.542969,122,144,89,256
7.551,14:28:48.551,-10.081055,-0.232422,-0.773438,-0.061523,0.032959,0.089355,0.,0.,0.,2.91748,-0.01709,0.046387,0.542969,122,144,89,256
7.651,14:28:48.651,-10.425781,0.293945,0.541016,-0.027588,0.027588,0.109375,0.,0.,0.,2.918457,-0.009766,0.046387,0.507812,122,158,90,256
7.751,14:28:48.751,-10.425781,0.293945,0.541016,-0.027588,0.027588,0.109375,0.,0.,0.,2.918457,-0.009766,0.046387,0.507812,122,158,90,256
7.851,14:28:48.851,-9.922852,-0.84082,-0.061523,-0.062744,0.022217,-0.001953,0.,0.,0.,2.919189,-0.005615,0.047363,0.5,123,179,90,258
7.951,14:28:48.951,-9.78418,0.978516,0.650391,-0.000977,0.056396,0.027588,0.,0.,0.,2.919678,-0.003174,0.047119,0.503906,129,177,92,259
8.051,14:28:49.051,-9.257812,0.265625,0.033203,-0.029785,0.006348,0.032959,0.,0.,0.,2.919678,0.00293,0.046387,0.511719,129,176,93,262
8.151,14:28:49.151,-9.257812,0.265625,0.033203,-0.029785,0.006348,0.032959,0.,0.,0.,2.919678,0.00293,0.046387,0.511719,129,176,93,262
8.251,14:28:49.251,-9.046875,0.750977,-0.40332,-0.006348,0.044678,-0.028564,0.,0.,0.,2.920166,0.005371,0.04541,0.515625,123,174,95,262
8.351,14:28:49.351,-9.046875,0.750977,-0.40332,-0.006348,0.044678,-0.028564,0.,0.,0.,2.920166,0.005371,0.04541,0.515625,123,174,95,262
8.451,14:28:49.451,-10.018555,0.474609,-0.517578,-0.047852,0.012695,-0.040283,0.,0.,0.,2.919678,0.009277,0.043213,0.527344,121,173,96,261
8.551,14:28:49.551,-9.583008,-0.137695,0.474609,-0.02124,-0.041504,-0.040283,0.,0.,0.,2.920654,0.013672,0.039795,0.554688,117,172,100,267
8.651,14:28:49.651,-9.583008,-0.137695,0.474609,-0.02124,-0.041504,-0.040283,0.,0.,0.,2.920654,0.013672,0.039795,0.554688,117,172,100,267
8.751,14:28:49.751,-9.827148,0.56543,2.15625,0.032959,0.074463,0.014893,0.,0.,0.,2.921387,0.008301,0.037109,0.554688,117,172,102,269
8.851,14:28:49.851,-9.827148,0.56543,2.15625,0.032959,0.074463,0.014893,0.,0.,0.,2.921387,0.008301,0.037109,0.554688,117,172,102,269
8.951,14:28:49.951,-10.176758,0.227539,1.917969,0.006348,0.226562,-0.126465,0.,0.,0.,2.926758,0.008545,0.034424,0.550781,117,173,101,269
9.051,14:28:50.051,-10.40625,0.194336,-0.151367,-0.00415,0.012695,-0.091309,0.,0.,0.,2.928467,0.000977,0.034424,0.550781,116,173,102,270
9.151,14:28:50.151,-9.851562,-0.293945,-0.070312,0.007324,0.003174,-0.005127,0.,0.,0.,2.930176,0.001221,0.039307,0.550781,116,174,100,272
9.251,14:28:50.251,-8.850586,0.113281,0.650391,-0.027588,0.119141,-0.049805,0.,0.,0.,2.929932,0.001465,0.036621,0.554688,116,174,100,274
9.351,14:28:50.351,-10.085938,0.041992,-0.061523,-0.043457,0.048828,-0.121094,0.,0.,0.,2.929688,0.000977,0.035156,0.570312,116,175,99,276
9.451,14:28:50.451,-9.578125,0.166016,1.139648,-0.018066,0.078613,-0.014893,0.,0.,0.,2.928467,-0.007324,0.037598,0.578125,116,139,99,246
9.551,14:28:50.551,-9.578125,0.166016,1.139648,-0.018066,0.078613,-0.014893,0.,0.,0.,2.928467,-0.007324,0.037598,0.578125,116,139,99,246
9.651,14:28:50.651,-9.549805,0.237305,0.982422,0.006348,0.088135,-0.038086,0.,0.,0.,2.929932,-0.01123,0.040039,0.554688,116,116,97,202
9.751,14:28:50.751,-9.549805,0.237305,0.982422,0.006348,0.088135,-0.038086,0.,0.,0.,2.929932,-0.01123,0.040039,0.554688,116,116,97,202
9.851,14:28:50.851,-9.549805,0.237305,0.982422,0.006348,0.088135,-0.038086,0.,0.,0.,2.929932,-0.01123,0.040039,0.554688,116,116,97,202
9.951,14:28:50.951,-10.,0.375,0.541016,0.001953,0.105225,-0.014893,0.,0.,0.,2.930908,-0.013672,0.040527,0.507812,116,155,97,230
10.051,14:28:51.051,-10.,0.375,0.541016,0.001953,0.105225,-0.014893,0.,0.,0.,2.930908,-0.013672,0.040527,0.507812,116,155,97,230
10.151,14:28:51.151,-10.,0.375,0.541016,0.001953,0.105225,-0.014893,0.,0.,0.,2.930908,-0.013672,0.040527,0.507812,116,155,97,230
10.251,14:28:51.251,-10.,0.375,0.541016,0.001953,0.105225,-0.014893,0.,0.,0.,2.930908,-0.013672,0.040527,0.507812,116,155,97,230
10.351,14:28:51.351,-10.62207,-0.422852,-1.073242,-0.057373,0.030762,-0.132812,0.,0.,0.,2.931396,-0.017578,0.046143,0.503906,117,182,94,243
10.451,14:28:51.451,-10.62207,-0.422852,-1.073242,-0.057373,0.030762,-0.132812,0.,0.,0.,2.931396,-0.017578,0.046143,0.503906,117,182,94,243
10.551,14:28:51.551,-10.02832,0.398438,1.491211,-0.037109,-0.015869,0.02002,0.,0.,0.,2.931152,-0.021484,0.043701,0.515625,117,184,92,201
10.651,14:28:51.651,-9.569336,0.717773,1.167969,-0.003174,0.067871,-0.001953,0.,0.,0.,2.931396,-0.025635,0.044922,0.53125,117,185,90,200
10.751,14:28:51.751,-10.138672,-1.254883,-2.018555,-0.070068,-0.026367,-0.038086,0.,0.,0.,2.930664,-0.026611,0.044678,0.542969,117,187,88,199
10.851,14:28:51.851,-8.707031,0.94043,-0.34668,-0.003174,0.023193,-0.006348,0.,0.,0.,2.931396,-0.028809,0.047119,0.542969,117,189,87,227
10.951,14:28:51.951,-8.707031,0.94043,-0.34668,-0.003174,0.023193,-0.006348,0.,0.,0.,2.931396,-0.028809,0.047119,0.542969,117,189,87,227
11.051,14:28:52.051,-8.889648,0.008789,-0.066406,-0.057373,0.030762,-0.11377,0.,0.,0.,2.931396,-0.029785,0.047363,0.542969,117,190,85,271
11.151,14:28:52.151,-8.889648,0.008789,-0.066406,-0.057373,0.030762,-0.11377,0.,0.,0.,2.931396,-0.029785,0.047363,0.542969,117,190,85,271
11.251,14:28:52.251,-9.822266,-0.422852,-0.137695,-0.038086,-0.003174,-0.116943,0.,0.,0.,2.931152,-0.030029,0.047607,0.539062,117,191,84,271
11.351,14:28:52.351,-9.822266,-0.422852,-0.137695,-0.038086,-0.003174,-0.116943,0.,0.,0.,2.931152,-0.030029,0.047607,0.539062,117,191,84,271
11.451,14:28:52.451,-10.554688,0.037109,0.033203,-0.043457,0.00415,-0.014893,0.,0.,0.,2.928955,-0.028564,0.037354,0.511719,113,192,81,278
11.551,14:28:52.551,-10.554688,0.037109,0.033203,-0.043457,0.00415,-0.014893,0.,0.,0.,2.928955,-0.028564,0.037354,0.511719,113,192,81,278
11.651,14:28:52.651,-9.454102,0.641602,-0.033203,-0.027588,0.078613,0.007324,0.,0.,0.,2.927979,-0.029053,0.036377,0.511719,113,192,81,277
11.751,14:28:52.751,-9.454102,0.641602,-0.033203,-0.027588,0.078613,0.007324,0.,0.,0.,2.927979,-0.029053,0.036377,0.511719,113,192,81,277
11.851,14:28:52.851,-9.587891,-0.793945,-0.726562,-0.088135,-0.091309,0.092529,0.,0.,0.,2.926514,-0.020996,0.031738,0.511719,112,191,81,277
11.951,14:28:52.951,-9.587891,-0.793945,-0.726562,-0.088135,-0.091309,0.092529,0.,0.,0.,2.926514,-0.020996,0.031738,0.511719,112,191,81,277
12.051,14:28:53.051,-9.870117,0.59375,1.040039,-0.02124,0.060547,-0.02124,0.,0.,0.,2.924561,-0.015869,0.031982,0.515625,112,191,81,277
12.151,14:28:53.151,-9.793945,-0.959961,-1.813477,-0.067871,0.036133,-0.015869,0.,0.,0.,2.922607,-0.016113,0.033936,0.519531,110,190,82,278
12.251,14:28:53.251,-9.46875,-0.123047,0.731445,-0.023193,0.078613,-0.039307,0.,0.,0.,2.920654,-0.013672,0.034912,0.519531,110,190,83,175
12.351,14:28:53.351,-9.46875,-0.123047,0.731445,-0.023193,0.078613,-0.039307,0.,0.,0.,2.920654,-0.013672,0.034912,0.519531,110,190,83,175
12.451,14:28:53.451,-9.530273,0.313477,-0.892578,-0.039307,-0.056396,0.00415,0.,0.,0.,2.919678,-0.009033,0.036133,0.515625,109,189,84,107
12.551,14:28:53.551,-9.530273,0.313477,-0.892578,-0.039307,-0.056396,0.00415,0.,0.,0.,2.919678,-0.009033,0.036133,0.515625,109,189,84,107
12.651,14:28:53.651,-9.640625,0.598633,-0.113281,-0.025391,0.013672,-0.026367,0.,0.,0.,2.919434,-0.003662,0.032959,0.503906,109,187,85,214
12.751,14:28:53.751,-9.640625,0.598633,-0.113281,-0.025391,0.013672,-0.026367,0.,0.,0.,2.919434,-0.003662,0.032959,0.503906,109,187,85,214
12.851,14:28:53.851,-9.856445,-0.194336,0.645508,-0.044678,0.0979,-0.014893,0.,0.,0.,2.918701,-0.000977,0.034424,0.484375,108,186,87,286
12.951,14:28:53.951,-9.635742,0.12793,-0.303711,-0.026367,0.018066,0.052002,0.,0.,0.,2.918701,0.008301,0.036865,0.5,106,184,92,289
13.051,14:28:54.051,-9.708008,0.255859,0.051758,0.02002,0.101074,0.,0.,0.,0.,2.92041,0.012451,0.039551,0.535156,106,183,92,287
13.151,14:28:54.151,-9.214844,0.204102,0.626953,-0.008301,-0.046631,0.031738,0.,0.,0.,2.921631,0.015625,0.0354,0.558594,106,182,94,287
13.251,14:28:54.251,-9.554688,0.822266,0.212891,-0.000977,0.090332,0.013672,0.,0.,0.,2.922363,0.019043,0.034912,0.542969,106,180,97,284
13.351,14:28:54.351,-9.554688,0.822266,0.212891,-0.000977,0.090332,0.013672,0.,0.,0.,2.922363,0.019043,0.034912,0.542969,106,180,97,284
13.451,14:28:54.451,-9.813477,0.265625,0.446289,-0.041504,-0.006348,0.025391,0.,0.,0.,2.922852,0.014648,0.039795,0.527344,107,179,97,282
13.551,14:28:54.551,-9.813477,0.265625,0.446289,-0.041504,-0.006348,0.025391,0.,0.,0.,2.922852,0.014648,0.039795,0.527344,107,179,97,282
13.651,14:28:54.651,-10.038086,-0.950195,-0.189453,-0.00415,0.209473,0.056396,0.,0.,0.,2.923096,0.013916,0.041016,0.515625,108,179,98,281
13.751,14:28:54.751,-10.038086,-0.950195,-0.189453,-0.00415,0.209473,0.056396,0.,0.,0.,2.923096,0.013916,0.041016,0.515625,108,179,98,281
13.851,14:28:54.851,-9.386719,0.8125,0.479492,0.009521,0.02002,-0.001953,0.,0.,0.,2.924561,0.016357,0.046387,0.507812,109,179,98,281
13.951,14:28:54.951,-9.386719,0.8125,0.479492,0.009521,0.02002,-0.001953,0.,0.,0.,2.924561,0.016357,0.046387,0.507812,109,179,98,281
14.051,14:28:55.051,-9.635742,0.208984,-0.455078,0.010498,0.107422,-0.033936,0.,0.,0.,2.925049,0.013672,0.050781,0.511719,109,174,99,281
14.151,14:28:55.151,-10.009766,1.629883,1.728516,0.001953,0.081787,-0.129639,0.,0.,0.,2.925293,0.009033,0.053711,0.519531,110,167,98,281
14.251,14:28:55.251,-9.176758,0.484375,-0.693359,-0.025391,0.011475,-0.033936,0.,0.,0.,2.925049,0.002686,0.05249,0.527344,110,172,98,281
14.351,14:28:55.351,-10.15332,0.489258,0.336914,-0.015869,-0.012695,-0.052002,0.,0.,0.,2.923828,-0.003174,0.052246,0.503906,110,180,97,283
14.451,14:28:55.451,-9.530273,-0.175781,-1.458008,-0.00415,0.000977,-0.04248,0.,0.,0.,2.92334,-0.008057,0.048096,0.46875,110,180,96,284
14.551,14:28:55.551,-10.574219,0.161133,-0.579102,-0.031738,0.028564,-0.124512,0.,0.,0.,2.922363,-0.010986,0.048828,0.449219,110,181,94,286
14.651,14:28:55.651,-9.712891,-0.041992,-1.823242,-0.051025,0.032959,-0.012695,0.,0.,0.,2.922119,-0.010254,0.047852,0.46875,110,182,93,286
14.751,14:28:55.751,-9.922852,0.532227,0.726562,-0.034912,0.074463,0.030762,0.,0.,0.,2.920166,-0.016357,0.046143,0.492188,110,184,92,284
14.851,14:28:55.851,-9.922852,0.532227,0.726562,-0.034912,0.074463,0.030762,0.,0.,0.,2.920166,-0.016357,0.046143,0.492188,110,184,92,284
14.951,14:28:55.951,-8.736328,-0.222656,-0.075195,-0.056396,0.083984,-0.176514,0.,0.,0.,2.915527,-0.019775,0.046875,0.503906,110,185,92,284
15.051,14:28:56.051,-8.736328,-0.222656,-0.075195,-0.056396,0.083984,-0.176514,0.,0.,0.,2.915527,-0.019775,0.046875,0.503906,110,185,92,284
15.151,14:28:56.151,-9.320312,-0.736328,0.764648,-0.060547,0.055176,-0.02124,0.,0.,0.,2.912109,-0.021973,0.046875,0.515625,109,186,89,286
15.251,14:28:56.251,-9.320312,-0.736328,0.764648,-0.060547,0.055176,-0.02124,0.,0.,0.,2.912109,-0.021973,0.046875,0.515625,109,186,89,286
15.351,14:28:56.351,-9.243164,-0.336914,-1.111328,-0.077637,0.016846,0.057373,0.,0.,0.,2.90625,-0.020264,0.039795,0.527344,108,188,86,283
15.451,14:28:56.451,-9.970703,1.268555,1.257812,-0.018066,-0.089355,-0.045654,0.,0.,0.,2.903564,-0.023193,0.033691,0.523438,108,189,86,282
15.551,14:28:56.551,-9.970703,1.268555,1.257812,-0.018066,-0.089355,-0.045654,0.,0.,0.,2.903564,-0.023193,0.033691,0.523438,108,189,86,282
15.651,14:28:56.651,-9.267578,-0.417969,-0.12793,-0.037109,0.04248,-0.057373,0.,0.,0.,2.899902,-0.024658,0.032715,0.519531,107,190,84,283
15.751,14:28:56.751,-9.267578,-0.417969,-0.12793,-0.037109,0.04248,-0.057373,0.,0.,0.,2.899902,-0.024658,0.032715,0.519531,107,190,84,283
15.851,14:28:56.851,-10.660156,-0.094727,-0.118164,-0.05957,0.024414,-0.013672,0.,0.,0.,2.896729,-0.020752,0.029297,0.511719,105,190,84,284
15.951,14:28:56.951,-10.660156,-0.094727,-0.118164,-0.05957,0.024414,-0.013672,0.,0.,0.,2.896729,-0.020752,0.029297,0.511719,105,190,84,284
16.051,14:28:57.051,-10.732422,0.779297,0.925781,-0.046631,-0.048828,-0.00415,0.,0.,0.,2.893799,-0.018555,0.027588,0.503906,103,191,84,284
16.151,14:28:57.151,-10.732422,0.779297,0.925781,-0.046631,-0.048828,-0.00415,0.,0.,0.,2.893799,-0.018555,0.027588,0.503906,103,191,84,284
16.251,14:28:57.251,-10.397461,-1.087891,-1.842773,-0.069092,-0.184082,-0.027588,0.,0.,0.,2.891602,-0.015869,0.018311,0.503906,102,191,84,285
16.351,14:28:57.351,-10.397461,-1.087891,-1.842773,-0.069092,-0.184082,-0.027588,0.,0.,0.,2.891602,-0.015869,0.018311,0.503906,102,191,84,285
16.451,14:28:57.451,-9.454102,0.469727,-0.792969,-0.040283,-0.044678,-0.001953,0.,0.,0.,2.889893,-0.014893,0.013184,0.503906,101,192,82,287
16.551,14:28:57.551,-9.454102,0.469727,-0.792969,-0.040283,-0.044678,-0.001953,0.,0.,0.,2.889893,-0.014893,0.013184,0.503906,101,192,82,287
16.651,14:28:57.651,-9.463867,-0.303711,-0.194336,-0.065918,0.066895,-0.070068,0.,0.,0.,2.888184,-0.016602,0.01123,0.503906,101,191,82,286
16.751,14:28:57.751,-9.463867,-0.303711,-0.194336,-0.065918,0.066895,-0.070068,0.,0.,0.,2.888184,-0.016602,0.01123,0.503906,101,191,82,286
16.851,14:28:57.851,-9.463867,-0.303711,-0.194336,-0.065918,0.066895,-0.070068,0.,0.,0.,2.888184,-0.016602,0.01123,0.503906,101,191,82,286
16.951,14:28:57.951,-10.430664,0.860352,0.925781,-0.048828,0.05957,-0.043457,0.,0.,0.,2.884766,-0.015869,0.02417,0.507812,98,191,82,284
17.051,14:28:58.051,-10.430664,0.860352,0.925781,-0.048828,0.05957,-0.043457,0.,0.,0.,2.884766,-0.015869,0.02417,0.507812,98,191,82,284
17.151,14:28:58.151,-8.568359,-0.323242,-1.010742,-0.015869,0.093506,0.027588,0.,0.,0.,2.884033,-0.013916,0.025879,0.511719,98,190,82,283
17.251,14:28:58.251,-9.717773,-0.275391,0.911133,-0.02124,0.073242,-0.049805,0.,0.,0.,2.88623,-0.011719,0.028809,0.511719,99,189,83,213
17.351,14:28:58.351,-9.099609,-0.12793,0.080078,-0.05835,0.0979,-0.007324,0.,0.,0.,2.885986,-0.011963,0.033691,0.511719,99,188,83,109
17.451,14:28:58.451,-10.171875,-0.099609,0.370117,-0.051025,0.019043,0.00415,0.,0.,0.,2.885498,-0.007324,0.038086,0.507812,101,187,83,177
17.551,14:28:58.551,-9.325195,-0.532227,-0.350586,-0.065918,0.051025,-0.003174,0.,0.,0.,2.885254,-0.005859,0.04126,0.503906,102,186,85,279
17.651,14:28:58.651,-10.186523,-0.270508,0.289062,-0.003174,0.083008,0.038086,0.,0.,0.,2.885498,-0.006104,0.043701,0.496094,104,185,86,278
17.751,14:28:58.751,-10.186523,-0.270508,0.289062,-0.003174,0.083008,0.038086,0.,0.,0.,2.885498,-0.006104,0.043701,0.496094,104,185,86,278
17.851,14:28:58.851,-10.196289,0.260742,-1.177734,-0.000977,0.028564,-0.061523,0.,0.,0.,2.886963,-0.00293,0.045898,0.480469,104,184,86,277
17.951,14:28:58.951,-10.196289,0.260742,-1.177734,-0.000977,0.028564,-0.061523,0.,0.,0.,2.886963,-0.00293,0.045898,0.480469,104,184,86,277
18.051,14:28:59.051,-9.003906,0.303711,0.626953,0.028564,0.028564,-0.038086,0.,0.,0.,2.895508,0.003174,0.05127,0.527344,110,182,89,274
18.151,14:28:59.151,-9.841797,0.360352,1.433594,0.045654,0.088135,-0.093506,0.,0.,0.,2.906006,0.001465,0.060303,0.542969,114,181,91,273
18.251,14:28:59.251,-9.841797,0.360352,1.433594,0.045654,0.088135,-0.093506,0.,0.,0.,2.906006,0.001465,0.060303,0.542969,114,181,91,273
18.351,14:28:59.351,-10.124023,0.132812,0.517578,0.011475,-0.05957,-0.013672,0.,0.,0.,2.908936,0.003174,0.060303,0.539062,115,180,91,274
18.451,14:28:59.451,-10.124023,0.132812,0.517578,0.011475,-0.05957,-0.013672,0.,0.,0.,2.908936,0.003174,0.060303,0.539062,115,180,91,274
18.551,14:28:59.551,-10.808594,0.408203,0.104492,-0.007324,-0.022217,-0.032959,0.,0.,0.,2.912109,0.,0.062256,0.527344,116,180,92,274
18.651,14:28:59.651,-10.808594,0.408203,0.104492,-0.007324,-0.022217,-0.032959,0.,0.,0.,2.912109,0.,0.062256,0.527344,116,180,92,274
18.751,14:28:59.751,-9.248047,0.280273,-0.113281,0.033936,0.116943,0.025391,0.,0.,0.,2.915283,-0.000244,0.060547,0.511719,117,180,92,274
18.851,14:28:59.851,-9.248047,0.280273,-0.113281,0.033936,0.116943,0.025391,0.,0.,0.,2.915283,-0.000244,0.060547,0.511719,117,180,92,274
18.951,14:28:59.951,-10.50293,0.660156,0.350586,-0.023193,0.001953,-0.110596,0.,0.,0.,2.918213,-0.003662,0.057861,0.496094,118,180,93,278
19.051,14:29:0.051,-10.009766,-0.179688,0.34668,-0.013672,-0.010498,-0.142578,0.,0.,0.,2.922363,-0.003418,0.05957,0.472656,118,159,93,281
19.151,14:29:0.151,-11.177734,-0.34668,0.15625,0.003174,-0.008301,-0.083008,0.,0.,0.,2.926025,-0.006592,0.0625,0.457031,119,127,92,276
19.251,14:29:0.251,-9.774414,0.037109,-0.237305,-0.005127,0.072266,0.008301,0.,0.,0.,2.929932,-0.006104,0.061035,0.457031,119,128,91,274
19.351,14:29:0.351,-9.774414,0.037109,-0.237305,-0.005127,0.072266,0.008301,0.,0.,0.,2.929932,-0.006104,0.061035,0.457031,119,128,91,274
19.451,14:29:0.451,-10.262695,-0.056641,0.925781,-0.012695,-0.044678,-0.056396,0.,0.,0.,2.93335,-0.010498,0.05835,0.476562,120,130,90,276
19.551,14:29:0.551,-10.262695,-0.056641,0.925781,-0.012695,-0.044678,-0.056396,0.,0.,0.,2.93335,-0.010498,0.05835,0.476562,120,130,90,276
19.651,14:29:0.651,-7.984375,-0.550781,-0.801758,-0.016846,0.054199,-0.07959,0.,0.,0.,2.94165,-0.016846,0.049072,0.539062,115,184,87,280
19.751,14:29:0.751,-9.947266,0.436523,1.040039,0.005127,-0.087158,-0.105225,0.,0.,0.,2.943848,-0.020508,0.035889,0.550781,113,186,86,269
19.851,14:29:0.851,-9.947266,0.436523,1.040039,0.005127,-0.087158,-0.105225,0.,0.,0.,2.943848,-0.020508,0.035889,0.550781,113,186,86,269
19.951,14:29:0.951,-9.033203,-0.389648,-0.146484,-0.018066,-0.083984,0.022217,0.,0.,0.,2.945312,-0.024902,0.031006,0.550781,111,186,86,266
20.051,14:29:1.051,-9.033203,-0.389648,-0.146484,-0.018066,-0.083984,0.022217,0.,0.,0.,2.945312,-0.024902,0.031006,0.550781,111,186,86,266
20.151,14:29:1.151,-8.754883,0.051758,-0.166016,0.013672,0.005127,0.078613,0.,0.,0.,2.947266,-0.025391,0.029785,0.542969,110,187,85,280
20.251,14:29:1.251,-8.754883,0.051758,-0.166016,0.013672,0.005127,0.078613,0.,0.,0.,2.947266,-0.025391,0.029785,0.542969,110,187,85,280
20.351,14:29:1.351,-10.516602,-0.888672,-0.336914,0.008301,0.019043,-0.04248,0.,0.,0.,2.948975,-0.020996,0.024658,0.53125,109,187,85,285
20.451,14:29:1.451,-9.655273,0.394531,1.035156,0.003174,-0.069092,-0.092529,0.,0.,0.,2.951416,-0.018066,0.023193,0.519531,108,188,84,286
20.551,14:29:1.551,-9.325195,0.099609,0.446289,0.022217,0.003174,-0.073242,0.,0.,0.,2.955322,-0.015625,0.022705,0.507812,107,188,84,288
20.651,14:29:1.651,-10.119141,0.041992,-1.614258,-0.048828,0.033936,-0.083984,0.,0.,0.,2.957764,-0.015869,0.023193,0.503906,103,190,83,291
20.751,14:29:1.751,-10.373047,0.550781,-0.707031,0.018066,0.032959,0.044678,0.,0.,0.,2.960693,-0.019287,0.021484,0.496094,94,190,83,257
20.851,14:29:1.851,-10.018555,1.306641,-0.835938,-0.003174,-0.487305,-0.081787,0.,0.,0.,2.963623,-0.021484,0.007568,0.492188,92,190,82,149
20.951,14:29:1.951,-10.018555,1.306641,-0.835938,-0.003174,-0.487305,-0.081787,0.,0.,0.,2.963623,-0.021484,0.007568,0.492188,92,190,82,149
21.051,14:29:2.051,-10.708008,-0.822266,-1.538086,-0.016846,-0.157471,-0.108398,0.,0.,0.,2.965576,-0.02002,-0.005615,0.492188,97,190,82,114
21.151,14:29:2.151,-10.708008,-0.822266,-1.538086,-0.016846,-0.157471,-0.108398,0.,0.,0.,2.965576,-0.02002,-0.005615,0.492188,97,190,82,114
21.251,14:29:2.251,-9.688477,0.023438,0.12793,-0.022217,0.310547,-0.073242,0.,0.,0.,2.968262,-0.020264,-0.003418,0.492188,98,190,82,114
21.351,14:29:2.351,-9.688477,0.023438,0.12793,-0.022217,0.310547,-0.073242,0.,0.,0.,2.968262,-0.020264,-0.003418,0.492188,98,190,82,114
21.451,14:29:2.451,-9.569336,0.650391,1.415039,0.043457,0.158447,0.075439,0.,0.,0.,2.971436,-0.019775,-0.002686,0.496094,96,188,83,115
21.551,14:29:2.551,-9.569336,0.650391,1.415039,0.043457,0.158447,0.075439,0.,0.,0.,2.971436,-0.019775,-0.002686,0.496094,96,188,83,115
21.651,14:29:2.651,-9.894531,0.964844,1.201172,0.019043,0.089355,0.047852,0.,0.,0.,2.973389,-0.020264,0.004639,0.5,95,188,83,115
21.751,14:29:2.751,-9.72168,0.394531,0.958984,-0.003174,0.049805,-0.153076,0.,0.,0.,2.979736,-0.006592,0.026123,0.5,93,187,85,115
21.851,14:29:2.851,-9.765625,-0.037109,0.137695,0.007324,0.084961,-0.026367,0.,0.,0.,2.981445,-0.003662,0.013428,0.484375,93,185,86,150
21.951,14:29:2.951,-10.09082,-0.8125,-0.844727,0.005127,-0.067871,0.252197,0.,0.,0.,2.983887,-0.003662,0.012695,0.476562,93,184,87,258
22.051,14:29:3.051,-9.330078,-0.037109,1.424805,-0.036133,0.273438,-0.200928,0.,0.,0.,2.985596,0.00415,0.019531,0.546875,96,182,91,290
22.151,14:29:3.151,-9.40625,-0.351562,0.916016,0.011475,-0.044678,0.047852,0.,0.,0.,2.987793,0.009033,0.027344,0.570312,98,169,93,288
22.251,14:29:3.251,-9.420898,-0.227539,-0.545898,0.026367,0.163818,0.114746,0.,0.,0.,2.991455,0.011963,0.036377,0.554688,99,161,94,287
22.351,14:29:3.351,-9.420898,-0.227539,-0.545898,0.026367,0.163818,0.114746,0.,0.,0.,2.991455,0.011963,0.036377,0.554688,99,161,94,287
22.451,14:29:3.451,-9.420898,-0.227539,-0.545898,0.026367,0.163818,0.114746,0.,0.,0.,2.991455,0.011963,0.036377,0.554688,99,161,94,287
22.551,14:29:3.551,-9.420898,-0.227539,-0.545898,0.026367,0.163818,0.114746,0.,0.,0.,2.991455,0.011963,0.036377,0.554688,99,161,94,287
22.651,14:29:3.651,-9.081055,0.285156,-0.87793,-0.006348,0.013672,-0.123291,0.,0.,0.,2.997559,0.007568,0.078369,0.535156,119,175,100,242
22.751,14:29:3.751,-9.081055,0.285156,-0.87793,-0.006348,0.013672,-0.123291,0.,0.,0.,2.997559,0.007568,0.078369,0.535156,119,175,100,242
22.851,14:29:3.851,-9.353516,-0.123047,-0.322266,-0.036133,0.039307,-0.102051,0.,0.,0.,2.997314,0.005615,0.080078,0.550781,120,174,100,269
22.951,14:29:3.951,-8.34375,0.12793,0.108398,0.003174,-0.012695,-0.005127,0.,0.,0.,2.99585,0.005859,0.077393,0.5625,122,174,99,267
23.051,14:29:4.051,-8.34375,0.12793,0.108398,0.003174,-0.012695,-0.005127,0.,0.,0.,2.99585,0.005859,0.077393,0.5625,122,174,99,267
23.151,14:29:4.151,-9.243164,-0.061523,0.041992,-0.008301,-0.003174,-0.048828,0.,0.,0.,2.995361,0.000244,0.074707,0.585938,123,174,98,265
23.251,14:29:4.251,-9.243164,-0.061523,0.041992,-0.008301,-0.003174,-0.048828,0.,0.,0.,2.995361,0.000244,0.074707,0.585938,123,174,98,265
23.351,14:29:4.351,-8.640625,-0.451172,0.963867,-0.025391,-0.02124,-0.185059,0.,0.,0.,2.995361,0.,0.072021,0.609375,126,174,97,264
23.451,14:29:4.451,-8.640625,-0.451172,0.963867,-0.025391,-0.02124,-0.185059,0.,0.,0.,2.995361,0.,0.072021,0.609375,126,174,97,264
23.551,14:29:4.551,-9.041992,0.18457,-0.640625,-0.028564,-0.064697,-0.209473,0.,0.,0.,2.994141,-0.006836,0.063477,0.589844,127,175,97,264
23.651,14:29:4.651,-9.041992,0.18457,-0.640625,-0.028564,-0.064697,-0.209473,0.,0.,0.,2.994141,-0.006836,0.063477,0.589844,127,175,97,264
23.751,14:29:4.751,-9.655273,-0.650391,-0.166016,-0.061523,0.063721,0.019043,0.,0.,0.,2.987305,-0.031982,0.039307,0.566406,129,188,84,266
23.851,14:29:4.851,-9.655273,-0.650391,-0.166016,-0.061523,0.063721,0.019043,0.,0.,0.,2.987305,-0.031982,0.039307,0.566406,129,188,84,266
23.951,14:29:4.951,-9.454102,0.72168,-0.512695,-0.046631,0.007324,-0.070068,0.,0.,0.,2.987061,-0.037842,0.040283,0.5625,129,191,81,268
24.051,14:29:5.051,-9.243164,0.436523,-0.34668,-0.025391,0.045654,-0.026367,0.,0.,0.,2.986084,-0.035645,0.038818,0.558594,127,191,81,269
24.151,14:29:5.151,-9.43457,-0.84082,-1.053711,-0.073242,0.028564,-0.049805,0.,0.,0.,2.98584,-0.039062,0.04126,0.550781,127,191,81,270
24.251,14:29:5.251,-9.726562,-0.313477,0.754883,-0.010498,0.047852,0.138184,0.,0.,0.,2.984863,-0.033936,0.040771,0.546875,126,191,81,271
24.351,14:29:5.351,-9.660156,-0.389648,0.493164,-0.039307,0.009521,0.052979,0.,0.,0.,2.985107,-0.026123,0.043945,0.542969,126,192,81,271
24.451,14:29:5.451,-9.660156,-0.389648,0.493164,-0.039307,0.009521,0.052979,0.,0.,0.,2.985107,-0.026123,0.043945,0.542969,126,192,81,271
24.551,14:29:5.551,-10.253906,1.288086,0.930664,0.026367,0.02124,-0.092529,0.,0.,0.,2.995605,0.002197,0.049072,0.515625,116,177,86,273
24.651,14:29:5.651,-10.253906,1.288086,0.930664,0.026367,0.02124,-0.092529,0.,0.,0.,2.995605,0.002197,0.049072,0.515625,116,177,86,273
24.751,14:29:5.751,-9.698242,-0.708008,-0.018555,0.008301,0.094482,0.069092,0.,0.,0.,2.999512,0.002197,0.047852,0.507812,115,185,86,273
24.851,14:29:5.851,-9.741211,0.608398,0.859375,0.039307,-0.066895,0.038086,0.,0.,0.,3.003662,-0.000732,0.047363,0.527344,112,183,88,272
24.951,14:29:5.951,-8.956055,-0.726562,0.34668,0.00415,-0.037109,-0.055176,0.,0.,0.,3.007324,0.003662,0.036377,0.554688,111,182,89,269
25.051,14:29:6.051,-8.956055,-0.726562,0.34668,0.00415,-0.037109,-0.055176,0.,0.,0.,3.007324,0.003662,0.036377,0.554688,111,182,89,269
25.151,14:29:6.151,-9.990234,-0.008789,-0.479492,0.026367,-0.051025,0.052979,0.,0.,0.,3.011963,0.005127,0.02832,0.574219,108,181,91,270
25.251,14:29:6.251,-9.990234,-0.008789,-0.479492,0.026367,-0.051025,0.052979,0.,0.,0.,3.011963,0.005127,0.02832,0.574219,108,181,91,270
25.351,14:29:6.351,-8.449219,0.34668,-1.647461,0.022217,-0.010498,-0.001953,0.,0.,0.,3.016357,0.005615,0.020996,0.589844,107,180,91,279
25.451,14:29:6.451,-8.449219,0.34668,-1.647461,0.022217,-0.010498,-0.001953,0.,0.,0.,3.016357,0.005615,0.020996,0.589844,107,180,91,279
25.551,14:29:6.551,-9.660156,0.356445,1.637695,0.,-0.121094,0.044678,0.,0.,0.,3.019287,0.007324,0.019775,0.601562,106,179,92,282
25.651,14:29:6.651,-9.416016,-0.484375,-0.365234,0.009521,0.086182,-0.029785,0.,0.,0.,3.022217,0.011719,0.016113,0.605469,105,178,92,282
25.751,14:29:6.751,-9.124023,0.356445,1.320312,0.04248,0.067871,-0.048828,0.,0.,0.,3.025146,0.009521,0.016357,0.601562,104,178,93,281
25.851,14:29:6.851,-9.124023,0.356445,1.320312,0.04248,0.067871,-0.048828,0.,0.,0.,3.025146,0.009521,0.016357,0.601562,104,178,93,281
25.951,14:29:6.951,-9.760742,0.479492,0.056641,0.,0.066895,-0.076416,0.,0.,0.,3.032715,-0.003906,0.025146,0.539062,103,179,93,282
26.051,14:29:7.051,-10.076172,1.079102,0.987305,-0.006348,-0.069092,-0.069092,0.,0.,0.,3.032471,-0.006104,0.026123,0.519531,104,180,93,282
26.151,14:29:7.151,-10.076172,-0.398438,-0.920898,-0.037109,0.075439,-0.071289,0.,0.,0.,3.032471,-0.004395,0.027832,0.5,104,179,93,281
26.251,14:29:7.251,-10.37793,0.137695,-1.086914,-0.039307,-0.024414,-0.008301,0.,0.,0.,3.032715,-0.00708,0.035645,0.480469,106,179,92,280
26.351,14:29:7.351,-9.607422,-0.037109,0.954102,-0.040283,0.141357,-0.036133,0.,0.,0.,3.032471,-0.008301,0.038818,0.476562,108,180,92,278
26.451,14:29:7.451,-9.607422,-0.037109,0.954102,-0.040283,0.141357,-0.036133,0.,0.,0.,3.032471,-0.008301,0.038818,0.476562,108,180,92,278
26.551,14:29:7.551,-9.607422,-0.037109,0.954102,-0.040283,0.141357,-0.036133,0.,0.,0.,3.032471,-0.008301,0.038818,0.476562,108,180,92,278
26.651,14:29:7.651,-9.917969,0.379883,-0.911133,-0.003174,0.074463,-0.022217,0.,0.,0.,3.033936,-0.016602,0.053711,0.582031,116,185,87,269
26.751,14:29:7.751,-10.425781,-0.24707,1.324219,-0.033936,0.040283,-0.054199,0.,0.,0.,3.035645,-0.016602,0.054199,0.578125,116,186,87,269
26.851,14:29:7.851,-10.234375,-0.427734,-0.084961,-0.025391,0.067871,0.045654,0.,0.,0.,3.037598,-0.013916,0.055908,0.570312,117,186,86,240
26.951,14:29:7.951,-9.861328,0.365234,-0.046875,0.00415,-0.055176,-0.092529,0.,0.,0.,3.042236,-0.018311,0.052979,0.5625,117,162,85,225
27.051,14:29:8.051,-9.861328,0.365234,-0.046875,0.00415,-0.055176,-0.092529,0.,0.,0.,3.042236,-0.018311,0.052979,0.5625,117,162,85,225
27.151,14:29:8.151,-10.023438,-0.24707,-0.62207,-0.001953,-0.04248,-0.119141,0.,0.,0.,3.044922,-0.016113,0.051025,0.554688,117,163,85,268
27.251,14:29:8.251,-10.023438,-0.24707,-0.62207,-0.001953,-0.04248,-0.119141,0.,0.,0.,3.044922,-0.016113,0.051025,0.554688,117,163,85,268
27.351,14:29:8.351,-8.841797,-0.084961,-0.498047,0.026367,0.034912,0.015869,0.,0.,0.,3.060791,-0.01123,0.040527,0.542969,115,188,85,272
27.451,14:29:8.451,-8.841797,-0.084961,-0.498047,0.026367,0.034912,0.015869,0.,0.,0.,3.060791,-0.01123,0.040527,0.542969,115,188,85,272
27.551,14:29:8.551,-10.158203,0.555664,-1.481445,0.012695,-0.034912,0.05835,0.,0.,0.,3.064209,-0.009277,0.038086,0.542969,113,187,85,273
27.651,14:29:8.651,-10.158203,0.555664,-1.481445,0.012695,-0.034912,0.05835,0.,0.,0.,3.064209,-0.009277,0.038086,0.542969,113,187,85,273
27.751,14:29:8.751,-9.008789,0.974609,0.179688,0.022217,-0.048828,0.016846,0.,0.,0.,3.067627,-0.009766,0.037109,0.542969,113,187,85,273
27.851,14:29:8.851,-9.008789,0.974609,0.179688,0.022217,-0.048828,0.016846,0.,0.,0.,3.067627,-0.009766,0.037109,0.542969,113,187,85,273
27.951,14:29:8.951,-9.803711,1.079102,-0.930664,-0.011475,0.001953,0.036133,0.,0.,0.,3.069824,-0.009521,0.033447,0.542969,111,187,85,274
28.051,14:29:9.051,-9.803711,1.079102,-0.930664,-0.011475,0.001953,0.036133,0.,0.,0.,3.069824,-0.009521,0.033447,0.542969,111,187,85,274
28.151,14:29:9.151,-10.,0.270508,-0.977539,-0.023193,-0.080811,-0.007324,0.,0.,0.,3.072998,-0.009277,0.031738,0.542969,111,187,86,275
28.251,14:29:9.251,-10.,0.270508,-0.977539,-0.023193,-0.080811,-0.007324,0.,0.,0.,3.072998,-0.009277,0.031738,0.542969,111,187,86,275
28.351,14:29:9.351,-10.105469,-0.327148,-0.740234,-0.024414,-0.02002,-0.040283,0.,0.,0.,3.075684,-0.009033,0.029297,0.542969,109,187,86,276
28.451,14:29:9.451,-10.105469,-0.327148,-0.740234,-0.024414,-0.02002,-0.040283,0.,0.,0.,3.075684,-0.009033,0.029297,0.542969,109,187,86,276
28.551,14:29:9.551,-9.554688,0.693359,-0.693359,-0.006348,-0.080811,-0.024414,0.,0.,0.,3.078613,-0.007324,0.029053,0.546875,109,187,86,276
28.651,14:29:9.651,-9.554688,0.693359,-0.693359,-0.006348,-0.080811,-0.024414,0.,0.,0.,3.078613,-0.007324,0.029053,0.546875,109,187,86,276
28.751,14:29:9.751,-9.554688,-0.78418,-0.18457,-0.02002,0.000977,-0.057373,0.,0.,0.,3.081787,-0.00293,0.028809,0.546875,107,187,86,277
28.851,14:29:9.851,-9.368164,-0.084961,-0.217773,-0.025391,0.054199,-0.029785,0.,0.,0.,3.084229,-0.00415,0.026855,0.546875,107,187,86,277
28.951,14:29:9.951,-10.128906,-0.850586,-0.051758,-0.001953,0.032959,0.028564,0.,0.,0.,3.08667,-0.00708,0.024902,0.542969,106,187,87,277
29.051,14:29:10.051,-9.592773,1.140625,1.386719,0.032959,-0.038086,-0.077637,0.,0.,0.,3.0896,-0.009033,0.023926,0.542969,106,187,87,275
29.151,14:29:10.151,-9.866211,0.945312,-0.464844,0.029785,0.009521,-0.032959,0.,0.,0.,-3.02002,-0.012207,0.036377,0.558594,131,181,90,183
29.251,14:29:10.251,-10.253906,-0.303711,-0.388672,0.02002,-0.011475,0.028564,0.,0.,0.,-3.009766,-0.012207,0.037354,0.5625,133,182,90,181
29.351,14:29:10.351,-10.253906,-0.303711,-0.388672,0.02002,-0.011475,0.028564,0.,0.,0.,-3.009766,-0.012207,0.037354,0.5625,133,182,90,181
29.451,14:29:10.451,-9.932617,0.499023,-0.379883,0.033936,-0.029785,0.048828,0.,0.,0.,-3.006348,-0.010986,0.037598,0.558594,133,183,89,180
29.551,14:29:10.551,-9.932617,0.499023,-0.379883,0.033936,-0.029785,0.048828,0.,0.,0.,-3.006348,-0.010986,0.037598,0.558594,133,183,89,180
29.651,14:29:10.651,-8.75,-0.394531,0.711914,0.032959,0.094482,0.018066,0.,0.,0.,-3.00293,-0.012451,0.039795,0.554688,135,183,89,179
29.751,14:29:10.751,-8.75,-0.394531,0.711914,0.032959,0.094482,0.018066,0.,0.,0.,-3.00293,-0.012451,0.039795,0.554688,135,183,89,179
29.851,14:29:10.851,-9.40625,0.494141,1.058594,0.028564,0.107422,0.,0.,0.,0.,-3.000244,-0.012451,0.041016,0.550781,135,183,89,179
29.951,14:29:10.951,-9.40625,0.494141,1.058594,0.028564,0.107422,0.,0.,0.,0.,-3.000244,-0.012451,0.041016,0.550781,135,183,89,179
30.051,14:29:11.051,-9.564453,1.25,1.015625,0.000977,0.018066,-0.048828,0.,0.,0.,-2.994629,-0.005615,0.038574,0.550781,142,186,87,247
30.151,14:29:11.151,-9.564453,1.25,1.015625,0.000977,0.018066,-0.048828,0.,0.,0.,-2.994629,-0.005615,0.038574,0.550781,142,186,87,247
30.251,14:29:11.251,-9.889648,0.541016,-0.250977,-0.000977,0.137207,-0.05835,0.,0.,0.,-2.995605,-0.013916,0.038086,0.558594,145,187,84,170
30.351,14:29:11.351,-9.602539,0.041992,0.227539,-0.026367,-0.022217,0.073242,0.,0.,0.,-2.99585,-0.017822,0.039795,0.558594,145,187,84,169
30.451,14:29:11.451,-10.033203,0.217773,-0.179688,-0.045654,0.030762,-0.088135,0.,0.,0.,-2.996094,-0.019287,0.042236,0.558594,146,188,83,167
30.551,14:29:11.551,-10.033203,0.217773,-0.179688,-0.045654,0.030762,-0.088135,0.,0.,0.,-2.996094,-0.019287,0.042236,0.558594,146,188,83,167
30.651,14:29:11.651,-10.397461,-0.323242,0.166016,-0.030762,0.026367,-0.052002,0.,0.,0.,-2.995361,-0.026855,0.037842,0.5625,152,192,77,162
30.751,14:29:11.751,-9.899414,1.616211,-1.219727,-0.003174,0.05957,-0.110596,0.,0.,0.,-2.99707,-0.024658,0.037109,0.5625,153,192,76,158
30.851,14:29:11.851,-10.344727,-0.817383,-0.023438,-0.066895,0.080811,-0.115967,0.,0.,0.,-3.022461,-0.010986,0.039795,0.570312,167,188,79,214
30.951,14:29:11.951,-10.344727,-0.817383,-0.023438,-0.066895,0.080811,-0.115967,0.,0.,0.,-3.022461,-0.010986,0.039795,0.570312,167,188,79,214
31.051,14:29:12.051,-9.970703,-0.084961,-0.488281,-0.049805,0.045654,0.112793,0.,0.,0.,-3.042969,-0.003662,0.044678,0.554688,179,182,84,197
31.151,14:29:12.151,-9.477539,-1.321289,-1.177734,-0.081787,-0.065918,0.018066,0.,0.,0.,-3.053467,-0.004883,0.039795,0.566406,189,180,87,190
31.251,14:29:12.251,-9.477539,-1.321289,-1.177734,-0.081787,-0.065918,0.018066,0.,0.,0.,-3.053467,-0.004883,0.039795,0.566406,189,180,87,190
31.351,14:29:12.351,-9.477539,-1.321289,-1.177734,-0.081787,-0.065918,0.018066,0.,0.,0.,-3.053467,-0.004883,0.039795,0.566406,189,180,87,190
31.451,14:29:12.451,-9.477539,-1.321289,-1.177734,-0.081787,-0.065918,0.018066,0.,0.,0.,-3.053467,-0.004883,0.039795,0.566406,189,180,87,190
31.551,14:29:12.551,-9.55957,-0.237305,0.003906,-0.008301,0.032959,0.052979,0.,0.,0.,-3.064697,-0.010498,0.041504,0.570312,201,180,87,180
31.651,14:29:12.651,-9.55957,-0.237305,0.003906,-0.008301,0.032959,0.052979,0.,0.,0.,-3.064697,-0.010498,0.041504,0.570312,201,180,87,180
31.751,14:29:12.751,-9.492188,0.398438,0.469727,0.02002,-0.033936,0.071289,0.,0.,0.,-3.064941,-0.010498,0.041992,0.570312,204,180,87,178
31.851,14:29:12.851,-10.262695,0.370117,1.053711,-0.016846,0.112793,-0.040283,0.,0.,0.,-3.06543,-0.008301,0.040039,0.570312,205,180,87,177
31.951,14:29:12.951,-10.430664,0.313477,-1.044922,0.,-0.009521,0.024414,0.,0.,0.,-3.065674,-0.008301,0.038818,0.574219,207,180,87,175
32.051,14:29:13.051,-9.37793,0.883789,-0.289062,-0.040283,0.064697,-0.043457,0.,0.,0.,-3.065918,-0.009766,0.040039,0.578125,208,180,87,174
32.151,14:29:13.151,-9.37793,0.883789,-0.289062,-0.040283,0.064697,-0.043457,0.,0.,0.,-3.065918,-0.009766,0.040039,0.578125,208,180,87,174
32.251,14:29:13.251,-9.391602,-1.064453,-0.459961,-0.012695,0.065918,-0.145752,0.,0.,0.,-3.06665,-0.003906,0.037354,0.574219,211,180,87,173
32.351,14:29:13.351,-9.391602,-1.064453,-0.459961,-0.012695,0.065918,-0.145752,0.,0.,0.,-3.06665,-0.003906,0.037354,0.574219,211,180,87,173
32.451,14:29:13.451,-9.300781,0.474609,-1.091797,-0.006348,-0.104248,-0.103027,0.,0.,0.,-3.066895,-0.00293,0.040527,0.566406,214,181,87,172
32.551,14:29:13.551,-9.300781,0.474609,-1.091797,-0.006348,-0.104248,-0.103027,0.,0.,0.,-3.066895,-0.00293,0.040527,0.566406,214,181,87,172
32.651,14:29:13.651,-9.899414,1.197266,0.72168,-0.027588,0.083984,-0.061523,0.,0.,0.,-3.066406,-0.008789,0.040771,0.5625,219,182,86,171
32.751,14:29:13.751,-9.899414,1.197266,0.72168,-0.027588,0.083984,-0.061523,0.,0.,0.,-3.066406,-0.008789,0.040771,0.5625,219,182,86,171
32.851,14:29:13.851,-9.617188,0.883789,0.973633,-0.04248,0.078613,-0.075439,0.,0.,0.,-3.065674,-0.01001,0.039551,0.574219,217,183,86,170
32.951,14:29:13.951,-9.617188,0.883789,0.973633,-0.04248,0.078613,-0.075439,0.,0.,0.,-3.065674,-0.01001,0.039551,0.574219,217,183,86,170
33.051,14:29:14.051,-9.617188,0.883789,0.973633,-0.04248,0.078613,-0.075439,0.,0.,0.,-3.065674,-0.01001,0.039551,0.574219,217,183,86,170
33.151,14:29:14.151,-9.25293,0.003906,0.265625,-0.043457,0.054199,-0.121094,0.,0.,0.,-3.085693,-0.016846,0.03833,0.570312,232,187,79,156
33.251,14:29:14.251,-9.25293,0.003906,0.265625,-0.043457,0.054199,-0.121094,0.,0.,0.,-3.085693,-0.016846,0.03833,0.570312,232,187,79,156
33.351,14:29:14.351,-10.076172,1.016602,-1.120117,0.00415,-0.030762,-0.045654,0.,0.,0.,-3.087891,-0.018799,0.039551,0.570312,234,188,78,153
33.451,14:29:14.451,-9.669922,-0.289062,1.106445,-0.02124,0.095703,-0.084961,0.,0.,0.,-3.088623,-0.027832,0.039062,0.570312,235,189,77,149
33.551,14:29:14.551,-9.248047,0.474609,0.792969,0.027588,-0.005127,0.070068,0.,0.,0.,-3.088135,-0.029053,0.039307,0.570312,236,190,77,148
33.651,14:29:14.651,-9.473633,0.78418,0.99707,-0.012695,0.040283,0.040283,0.,0.,0.,-3.087891,-0.029297,0.040039,0.570312,238,192,77,145
33.751,14:29:14.751,-10.148438,-0.499023,0.398438,-0.02124,0.011475,0.037109,0.,0.,0.,-3.088867,-0.021729,0.039795,0.570312,218,188,76,141
33.851,14:29:14.851,-10.148438,-0.499023,0.398438,-0.02124,0.011475,0.037109,0.,0.,0.,-3.088867,-0.021729,0.039795,0.570312,218,188,76,141
33.951,14:29:14.951,-9.851562,1.321289,1.358398,-0.034912,0.153076,-0.054199,0.,0.,0.,-3.089355,-0.023438,0.037109,0.570312,234,187,76,139
34.051,14:29:15.051,-9.851562,1.321289,1.358398,-0.034912,0.153076,-0.054199,0.,0.,0.,-3.089355,-0.023438,0.037109,0.570312,234,187,76,139
34.151,14:29:15.151,-10.018555,0.698242,2.003906,-0.060547,0.083008,-0.0979,0.,0.,0.,-3.101074,-0.02002,0.039307,0.558594,220,182,78,134
34.251,14:29:15.251,-9.655273,-0.018555,0.008789,-0.062744,-0.008301,0.080811,0.,0.,0.,-3.104736,-0.011719,0.036865,0.53125,243,180,80,133
34.351,14:29:15.351,-11.172852,0.474609,-2.378906,-0.022217,-0.005127,-0.065918,0.,0.,0.,-3.106201,-0.008057,0.038818,0.523438,251,179,80,132
34.451,14:29:15.451,-9.554688,0.175781,-0.645508,-0.040283,0.052979,-0.006348,0.,0.,0.,-3.110107,-0.000244,0.041748,0.570312,252,177,82,131
34.551,14:29:15.551,-9.554688,0.175781,-0.645508,-0.040283,0.052979,-0.006348,0.,0.,0.,-3.110107,-0.000244,0.041748,0.570312,252,177,82,131
34.651,14:29:15.651,-9.660156,0.142578,1.253906,-0.040283,0.033936,0.040283,0.,0.,0.,-3.12915,0.013672,0.048584,0.550781,266,170,90,119
34.751,14:29:15.751,-9.660156,0.142578,1.253906,-0.040283,0.033936,0.040283,0.,0.,0.,-3.12915,0.013672,0.048584,0.550781,266,170,90,119
34.851,14:29:15.851,-9.980469,0.650391,1.063477,-0.047852,0.007324,-0.055176,0.,0.,0.,-3.131592,0.012207,0.046143,0.542969,261,170,91,117
34.951,14:29:15.951,-9.980469,0.650391,1.063477,-0.047852,0.007324,-0.055176,0.,0.,0.,-3.131592,0.012207,0.046143,0.542969,261,170,91,117
35.051,14:29:16.051,-10.171875,0.503906,-1.134766,-0.069092,0.006348,0.023193,0.,0.,0.,-3.134766,0.015137,0.04834,0.542969,244,170,93,116
35.151,14:29:16.151,-9.439453,0.983398,0.617188,-0.028564,0.041504,-0.048828,0.,0.,0.,-3.137695,0.016357,0.049805,0.539062,246,170,66,115
35.251,14:29:16.251,-9.439453,0.983398,0.617188,-0.028564,0.041504,-0.048828,0.,0.,0.,-3.137695,0.016357,0.049805,0.539062,246,170,66,115
35.351,14:29:16.351,-9.439453,0.983398,0.617188,-0.028564,0.041504,-0.048828,0.,0.,0.,-3.137695,0.016357,0.049805,0.539062,246,170,66,115
35.451,14:29:16.451,-9.439453,0.983398,0.617188,-0.028564,0.041504,-0.048828,0.,0.,0.,-3.137695,0.016357,0.049805,0.539062,246,170,66,115
35.551,14:29:16.551,-10.521484,0.537109,-0.108398,0.02124,0.05835,-0.05957,0.,0.,0.,3.140625,0.064697,0.070068,0.535156,284,162,101,105
35.651,14:29:16.651,-9.516602,0.260742,-0.056641,-0.014893,0.005127,-0.103027,0.,0.,0.,-3.133301,0.011963,0.04541,0.546875,285,159,102,105
35.751,14:29:16.751,-9.449219,-0.298828,-0.161133,-0.013672,0.145752,-0.00415,0.,0.,0.,-3.132568,-0.004639,0.046875,0.5625,289,164,95,105
35.851,14:29:16.851,-9.449219,-0.298828,-0.161133,-0.013672,0.145752,-0.00415,0.,0.,0.,-3.132568,-0.004639,0.046875,0.5625,289,164,95,105
35.951,14:29:16.951,-9.454102,0.046875,-0.707031,-0.00415,0.091309,-0.121094,0.,0.,0.,-3.133545,-0.013916,0.046387,0.558594,294,167,93,105
36.051,14:29:17.051,-9.454102,0.046875,-0.707031,-0.00415,0.091309,-0.121094,0.,0.,0.,-3.133545,-0.013916,0.046387,0.558594,294,167,93,105
36.151,14:29:17.151,-10.373047,-1.311523,-0.046875,-0.018066,0.024414,0.010498,0.,0.,0.,-3.136475,-0.038086,0.049316,0.535156,286,176,85,105
36.251,14:29:17.251,-10.253906,0.318359,-1.353516,-0.057373,0.011475,-0.000977,0.,0.,0.,-3.137695,-0.038574,0.051025,0.558594,261,177,83,106
36.351,14:29:17.351,-9.813477,0.12793,0.242188,-0.024414,-0.057373,0.07959,0.,0.,0.,-3.139648,-0.034668,0.048096,0.578125,245,179,82,106
36.451,14:29:17.451,-9.310547,-0.280273,0.664062,-0.045654,-0.108398,-0.091309,0.,0.,0.,3.141113,-0.031982,0.043213,0.585938,227,180,82,107
36.551,14:29:17.551,-9.310547,-0.280273,0.664062,-0.045654,-0.108398,-0.091309,0.,0.,0.,3.141113,-0.031982,0.043213,0.585938,227,180,82,107
36.651,14:29:17.651,-8.492188,-0.474609,-0.018555,-0.046631,-0.00415,-0.040283,0.,0.,0.,3.139648,-0.026123,0.043457,0.585938,215,181,81,107
36.751,14:29:17.751,-8.492188,-0.474609,-0.018555,-0.046631,-0.00415,-0.040283,0.,0.,0.,3.139648,-0.026123,0.043457,0.585938,215,181,81,107
36.851,14:29:17.851,-9.875,-0.099609,-1.086914,-0.056396,-0.012695,0.080811,0.,0.,0.,3.137695,-0.022217,0.040527,0.585938,176,182,80,107
36.951,14:29:17.951,-9.875,-0.099609,-1.086914,-0.056396,-0.012695,0.080811,0.,0.,0.,3.137695,-0.022217,0.040527,0.585938,176,182,80,107
37.051,14:29:18.051,-9.564453,-0.161133,-0.34668,-0.110596,-0.029785,0.120117,0.,0.,0.,3.133301,-0.020752,0.039062,0.585938,151,183,78,108
37.151,14:29:18.151,-9.564453,-0.161133,-0.34668,-0.110596,-0.029785,0.120117,0.,0.,0.,3.133301,-0.020752,0.039062,0.585938,151,183,78,108
37.251,14:29:18.251,-9.081055,-0.080078,-0.080078,-0.070068,0.040283,-0.051025,0.,0.,0.,3.128662,-0.022949,0.042725,0.582031,205,184,77,109
37.351,14:29:18.351,-9.081055,-0.080078,-0.080078,-0.070068,0.040283,-0.051025,0.,0.,0.,3.128662,-0.022949,0.042725,0.582031,205,184,77,109
37.451,14:29:18.451,-9.894531,0.146484,-0.431641,-0.090332,0.010498,-0.014893,0.,0.,0.,3.121094,-0.020752,0.036377,0.578125,243,186,77,111
37.551,14:29:18.551,-9.49707,0.641602,0.62207,-0.048828,0.05835,0.172363,0.,0.,0.,3.115967,-0.016846,0.033203,0.578125,244,186,77,112
37.651,14:29:18.651,-9.49707,0.641602,0.62207,-0.048828,0.05835,0.172363,0.,0.,0.,3.115967,-0.016846,0.033203,0.578125,244,186,77,112
37.751,14:29:18.751,-9.827148,0.84082,-0.441406,-0.055176,0.056396,0.121094,0.,0.,0.,3.111084,-0.017334,0.032715,0.570312,267,170,77,113
37.851,14:29:18.851,-9.827148,0.84082,-0.441406,-0.055176,0.056396,0.121094,0.,0.,0.,3.111084,-0.017334,0.032715,0.570312,267,170,77,113
37.951,14:29:18.951,-10.033203,0.151367,0.683594,-0.046631,0.106201,-0.04248,0.,0.,0.,3.10791,-0.01416,0.032715,0.570312,283,147,77,113
38.051,14:29:19.051,-9.133789,-0.384766,-1.086914,-0.041504,0.007324,-0.023193,0.,0.,0.,3.102539,-0.010254,0.038818,0.566406,281,186,77,114
38.151,14:29:19.151,-10.320312,-0.066406,0.469727,-0.063721,0.026367,-0.013672,0.,0.,0.,3.100342,-0.009033,0.039551,0.566406,281,186,77,115
38.251,14:29:19.251,-10.320312,-0.066406,0.469727,-0.063721,0.026367,-0.013672,0.,0.,0.,3.100342,-0.009033,0.039551,0.566406,281,186,77,115
38.351,14:29:19.351,-10.354492,0.351562,0.431641,-0.005127,0.05957,0.007324,0.,0.,0.,3.098145,-0.007324,0.038818,0.5625,281,187,77,115
38.451,14:29:19.451,-10.354492,0.351562,0.431641,-0.005127,0.05957,0.007324,0.,0.,0.,3.098145,-0.007324,0.038818,0.5625,281,187,77,115
38.551,14:29:19.551,-9.214844,-0.056641,-1.040039,-0.049805,0.029785,-0.018066,0.,0.,0.,3.095459,-0.006836,0.041992,0.5625,281,187,79,115
38.651,14:29:19.651,-9.214844,-0.056641,-1.040039,-0.049805,0.029785,-0.018066,0.,0.,0.,3.095459,-0.006836,0.041992,0.5625,281,187,79,115
38.751,14:29:19.751,-9.760742,-0.736328,1.576172,-0.041504,-0.006348,0.104248,0.,0.,0.,3.092285,-0.003906,0.042969,0.5625,274,187,78,116
38.851,14:29:19.851,-10.206055,-0.698242,-1.006836,-0.078613,0.000977,0.005127,0.,0.,0.,3.088867,-0.001953,0.044922,0.5625,252,187,78,117
38.951,14:29:19.951,-9.607422,0.40332,0.408203,-0.028564,0.007324,-0.036133,0.,0.,0.,3.085938,-0.004883,0.039795,0.566406,252,187,78,117
39.051,14:29:20.051,-8.975586,-0.232422,0.375,-0.05835,0.,-0.063721,0.,0.,0.,3.082764,-0.004639,0.033691,0.570312,273,186,79,118
39.151,14:29:20.151,-9.439453,-0.318359,-0.217773,-0.047852,0.008301,-0.041504,0.,0.,0.,3.080078,-0.006836,0.032715,0.570312,272,186,79,118
39.251,14:29:20.251,-9.774414,-0.598633,-1.519531,-0.075439,-0.02002,-0.031738,0.,0.,0.,3.076416,-0.009766,0.030273,0.574219,248,186,80,118
39.351,14:29:20.351,-9.774414,-0.598633,-1.519531,-0.075439,-0.02002,-0.031738,0.,0.,0.,3.076416,-0.009766,0.030273,0.574219,248,186,80,118
39.451,14:29:20.451,-9.78418,0.755859,1.234375,-0.013672,0.057373,-0.005127,0.,0.,0.,3.074219,-0.008301,0.030273,0.578125,239,187,80,120
39.551,14:29:20.551,-9.78418,0.755859,1.234375,-0.013672,0.057373,-0.005127,0.,0.,0.,3.074219,-0.008301,0.030273,0.578125,239,187,80,120
39.651,14:29:20.651,-10.287109,-0.503906,1.010742,-0.036133,0.045654,-0.02124,0.,0.,0.,3.072021,-0.006836,0.032471,0.578125,237,169,80,120
39.751,14:29:20.751,-10.287109,-0.503906,1.010742,-0.036133,0.045654,-0.02124,0.,0.,0.,3.072021,-0.006836,0.032471,0.578125,237,169,80,120
39.851,14:29:20.851,-9.071289,-0.123047,0.792969,-0.013672,0.083008,-0.044678,0.,0.,0.,3.071289,-0.005859,0.033691,0.570312,237,158,79,119
39.951,14:29:20.951,-9.071289,-0.123047,0.792969,-0.013672,0.083008,-0.044678,0.,0.,0.,3.071289,-0.005859,0.033691,0.570312,237,158,79,119
40.051,14:29:21.051,-9.612305,-0.84082,-1.134766,-0.052002,-0.055176,-0.083984,0.,0.,0.,3.070801,-0.003662,0.028564,0.570312,238,176,79,119
40.151,14:29:21.151,-9.975586,0.902344,-0.388672,-0.02124,0.060547,-0.012695,0.,0.,0.,3.070068,-0.014404,0.036865,0.570312,195,189,79,118
40.251,14:29:21.251,-8.745117,0.964844,0.673828,-0.014893,0.131836,0.040283,0.,0.,0.,3.069092,-0.015869,0.04126,0.566406,178,189,79,116
40.351,14:29:21.351,-9.822266,0.222656,0.773438,-0.04248,-0.00415,-0.126465,0.,0.,0.,3.067627,-0.01709,0.038818,0.558594,163,188,79,117
40.451,14:29:21.451,-9.40625,-0.003906,-0.711914,-0.052979,0.125488,-0.064697,0.,0.,0.,3.064941,-0.011963,0.046387,0.550781,191,188,78,120
40.551,14:29:21.551,-10.124023,0.285156,1.115234,-0.045654,0.066895,-0.003174,0.,0.,0.,3.062988,-0.014404,0.053955,0.546875,242,188,78,118
40.651,14:29:21.651,-9.233398,0.15625,-0.104492,-0.062744,-0.166016,-0.061523,0.,0.,0.,3.060303,-0.017822,0.047852,0.542969,218,189,78,115
40.751,14:29:21.751,-9.008789,0.34668,1.044922,-0.061523,0.078613,-0.145752,0.,0.,0.,3.057617,-0.016846,0.040283,0.542969,184,188,78,112
40.851,14:29:21.851,-9.008789,0.34668,1.044922,-0.061523,0.078613,-0.145752,0.,0.,0.,3.057617,-0.016846,0.040283,0.542969,184,188,78,112
40.951,14:29:21.951,-9.449219,1.107422,1.129883,-0.031738,0.206299,0.022217,0.,0.,0.,3.055176,-0.015137,0.04248,0.542969,224,188,78,109
41.051,14:29:22.051,-9.449219,1.107422,1.129883,-0.031738,0.206299,0.022217,0.,0.,0.,3.055176,-0.015137,0.04248,0.542969,224,188,78,109
41.151,14:29:22.151,-9.755859,0.613281,-0.954102,-0.064697,0.009521,0.00415,0.,0.,0.,3.052979,-0.013672,0.067139,0.542969,286,188,79,110
41.251,14:29:22.251,-9.755859,0.613281,-0.954102,-0.064697,0.009521,0.00415,0.,0.,0.,3.052979,-0.013672,0.067139,0.542969,286,188,79,110
41.351,14:29:22.351,-9.320312,0.693359,0.355469,-0.052979,0.149902,0.018066,0.,0.,0.,3.050049,-0.012695,0.072998,0.542969,269,189,79,113
41.451,14:29:22.451,-9.320312,0.693359,0.355469,-0.052979,0.149902,0.018066,0.,0.,0.,3.050049,-0.012695,0.072998,0.542969,269,189,79,113
41.551,14:29:22.551,-9.870117,0.888672,-1.713867,-0.052002,0.084961,-0.091309,0.,0.,0.,3.04541,-0.009521,0.072754,0.542969,244,188,79,110
41.651,14:29:22.651,-9.870117,0.888672,-1.713867,-0.052002,0.084961,-0.091309,0.,0.,0.,3.04541,-0.009521,0.072754,0.542969,244,188,79,110
41.751,14:29:22.751,-9.870117,0.888672,-1.713867,-0.052002,0.084961,-0.091309,0.,0.,0.,3.04541,-0.009521,0.072754,0.542969,244,188,79,110
41.851,14:29:22.851,-9.511719,0.845703,-2.108398,-0.063721,-0.069092,-0.121094,0.,0.,0.,3.036865,-0.013672,0.053955,0.550781,241,188,79,107
41.951,14:29:22.951,-9.511719,0.845703,-2.108398,-0.063721,-0.069092,-0.121094,0.,0.,0.,3.036865,-0.013672,0.053955,0.550781,241,188,79,107
42.051,14:29:23.051,-10.287109,0.693359,-0.332031,-0.052002,0.197754,0.015869,0.,0.,0.,3.032471,-0.011719,0.056152,0.554688,219,188,79,108
42.151,14:29:23.151,-10.287109,0.693359,-0.332031,-0.052002,0.197754,0.015869,0.,0.,0.,3.032471,-0.011719,0.056152,0.554688,219,188,79,108
42.251,14:29:23.251,-9.717773,0.741211,-0.174805,-0.061523,-0.037109,0.00415,0.,0.,0.,3.029297,-0.013672,0.063721,0.5625,187,188,79,108
42.351,14:29:23.351,-9.717773,0.741211,-0.174805,-0.061523,-0.037109,0.00415,0.,0.,0.,3.029297,-0.013672,0.063721,0.5625,187,188,79,108
42.451,14:29:23.451,-9.717773,0.741211,-0.174805,-0.061523,-0.037109,0.00415,0.,0.,0.,3.029297,-0.013672,0.063721,0.5625,187,188,79,108
42.551,14:29:23.551,-9.157227,0.303711,-0.977539,-0.062744,-0.157471,-0.014893,0.,0.,0.,3.025391,-0.007568,0.053467,0.566406,237,188,78,110
42.651,14:29:23.651,-9.157227,0.303711,-0.977539,-0.062744,-0.157471,-0.014893,0.,0.,0.,3.025391,-0.007568,0.053467,0.566406,237,188,78,110
42.751,14:29:23.751,-10.009766,-0.413086,1.277344,-0.066895,-0.011475,-0.014893,0.,0.,0.,3.021729,-0.005371,0.045166,0.566406,237,188,77,112
42.851,14:29:23.851,-10.009766,-0.413086,1.277344,-0.066895,-0.011475,-0.014893,0.,0.,0.,3.021729,-0.005371,0.045166,0.566406,237,188,77,112
42.951,14:29:23.951,-9.765625,-0.693359,-0.204102,-0.036133,-0.060547,0.006348,0.,0.,0.,3.018799,-0.008301,0.039795,0.570312,238,188,76,113
43.051,14:29:24.051,-9.765625,-0.693359,-0.204102,-0.036133,-0.060547,0.006348,0.,0.,0.,3.018799,-0.008301,0.039795,0.570312,238,188,76,113
43.151,14:29:24.151,-10.15332,0.123047,0.250977,-0.052979,-0.031738,-0.153076,0.,0.,0.,3.018066,-0.012939,0.04248,0.574219,237,189,75,115
43.251,14:29:24.251,-9.774414,0.341797,0.882812,0.030762,0.138184,-0.064697,0.,0.,0.,3.019043,-0.016357,0.033691,0.574219,237,191,74,116
43.351,14:29:24.351,-9.506836,-0.222656,0.655273,-0.008301,-0.148926,0.000977,0.,0.,0.,3.020264,-0.020264,0.029785,0.570312,204,192,74,118
43.451,14:29:24.451,-9.765625,-0.123047,0.911133,-0.023193,-0.032959,-0.069092,0.,0.,0.,3.019775,-0.02124,0.026855,0.570312,183,192,73,119
43.551,14:29:24.551,-9.195312,0.764648,-1.538086,-0.016846,0.120117,-0.142578,0.,0.,0.,3.018799,-0.019287,0.021729,0.566406,172,192,72,120
43.651,14:29:24.651,-9.300781,-0.023438,0.902344,-0.001953,0.00415,0.056396,0.,0.,0.,3.020264,-0.018555,0.022949,0.5625,166,194,71,120
43.751,14:29:24.751,-9.879883,0.242188,-0.360352,-0.012695,-0.023193,0.033936,0.,0.,0.,3.020264,-0.02124,0.024902,0.5625,156,194,71,121
43.851,14:29:24.851,-9.870117,0.213867,0.023438,-0.040283,0.111572,-0.170166,0.,0.,0.,3.019043,-0.022461,0.027344,0.5625,150,194,70,122
43.951,14:29:24.951,-9.870117,0.213867,0.023438,-0.040283,0.111572,-0.170166,0.,0.,0.,3.019043,-0.022461,0.027344,0.5625,150,194,70,122
44.051,14:29:25.051,-9.736328,-0.151367,-1.272461,-0.028564,0.049805,0.044678,0.,0.,0.,3.017822,-0.01709,0.025879,0.558594,138,194,69,124
44.151,14:29:25.151,-9.736328,-0.151367,-1.272461,-0.028564,0.049805,0.044678,0.,0.,0.,3.017822,-0.01709,0.025879,0.558594,138,194,69,124
44.251,14:29:25.251,-10.933594,-0.797852,-0.013672,-0.012695,0.009521,0.081787,0.,0.,0.,3.018311,-0.017578,0.03418,0.554688,130,194,69,124
44.351,14:29:25.351,-10.933594,-0.797852,-0.013672,-0.012695,0.009521,0.081787,0.,0.,0.,3.018311,-0.017578,0.03418,0.554688,130,194,69,124
44.451,14:29:25.451,-9.540039,1.654297,-0.564453,-0.005127,0.104248,-0.029785,0.,0.,0.,3.01709,-0.017334,0.037842,0.550781,140,194,69,124
44.551,14:29:25.551,-9.9375,0.199219,-0.421875,-0.030762,0.078613,-0.070068,0.,0.,0.,3.014648,-0.023682,0.039551,0.554688,147,194,69,124
44.651,14:29:25.651,-8.932617,0.522461,0.835938,-0.032959,0.049805,0.023193,0.,0.,0.,3.011719,-0.02002,0.039795,0.554688,155,194,70,125
44.751,14:29:25.751,-10.458984,0.255859,0.379883,-0.038086,0.003174,0.074463,0.,0.,0.,3.009766,-0.02002,0.043213,0.554688,161,195,70,128
44.851,14:29:25.851,-9.884766,-0.575195,-0.512695,0.02002,0.007324,-0.110596,0.,0.,0.,3.013428,-0.008301,0.058838,0.5625,192,192,74,133
44.951,14:29:25.951,-9.726562,-0.641602,-0.55957,-0.005127,0.091309,-0.095703,0.,0.,0.,3.01709,-0.013916,0.061523,0.5625,198,192,72,136
45.051,14:29:26.051,-9.726562,-0.641602,-0.55957,-0.005127,0.091309,-0.095703,0.,0.,0.,3.01709,-0.013916,0.061523,0.5625,198,192,72,136
45.151,14:29:26.151,-9.49707,-0.736328,-0.545898,0.012695,-0.001953,-0.135986,0.,0.,0.,3.019043,-0.020752,0.061035,0.5625,207,192,72,137
45.251,14:29:26.251,-9.49707,-0.736328,-0.545898,0.012695,-0.001953,-0.135986,0.,0.,0.,3.019043,-0.020752,0.061035,0.5625,207,192,72,137
45.351,14:29:26.351,-9.755859,-0.759766,0.293945,-0.011475,0.005127,0.016846,0.,0.,0.,3.021484,-0.022705,0.058838,0.5625,197,193,70,139
45.451,14:29:26.451,-9.755859,-0.759766,0.293945,-0.011475,0.005127,0.016846,0.,0.,0.,3.021484,-0.022705,0.058838,0.5625,197,193,70,139
45.551,14:29:26.551,-9.975586,1.482422,1.657227,0.010498,-0.047852,0.062744,0.,0.,0.,3.023682,-0.024414,0.055664,0.5625,160,194,70,140
45.651,14:29:26.651,-9.181641,-0.179688,0.298828,0.022217,-0.052002,-0.083008,0.,0.,0.,3.024658,-0.027832,0.056152,0.5625,146,196,68,142
45.751,14:29:26.751,-9.181641,-0.179688,0.298828,0.022217,-0.052002,-0.083008,0.,0.,0.,3.024658,-0.027832,0.056152,0.5625,146,196,68,142
45.851,14:29:26.851,-10.047852,-0.327148,1.044922,0.019043,0.124512,0.062744,0.,0.,0.,3.025146,0.006836,0.042969,0.554688,144,195,76,205
45.951,14:29:26.951,-10.310547,-0.066406,-0.655273,-0.015869,-0.062744,-0.070068,0.,0.,0.,3.028809,-0.002197,0.044189,0.554688,146,196,73,216
46.051,14:29:27.051,-10.310547,-0.066406,-0.655273,-0.015869,-0.062744,-0.070068,0.,0.,0.,3.028809,-0.002197,0.044189,0.554688,146,196,73,216
46.151,14:29:27.151,-9.492188,1.601562,0.161133,0.013672,0.056396,-0.078613,0.,0.,0.,3.030273,-0.012695,0.042969,0.554688,160,196,72,219
46.251,14:29:27.251,-9.492188,1.601562,0.161133,0.013672,0.056396,-0.078613,0.,0.,0.,3.030273,-0.012695,0.042969,0.554688,160,196,72,219
46.351,14:29:27.351,-9.665039,-0.137695,2.003906,0.022217,0.093506,-0.126465,0.,0.,0.,3.031006,-0.018066,0.043945,0.558594,170,199,71,225
46.451,14:29:27.451,-9.665039,-0.137695,2.003906,0.022217,0.093506,-0.126465,0.,0.,0.,3.031006,-0.018066,0.043945,0.558594,170,199,71,225
46.551,14:29:27.551,-9.526367,-0.394531,1.158203,-0.007324,0.093506,-0.022217,0.,0.,0.,3.030762,-0.021973,0.042969,0.5625,145,194,70,229
46.651,14:29:27.651,-9.526367,-0.394531,1.158203,-0.007324,0.093506,-0.022217,0.,0.,0.,3.030762,-0.021973,0.042969,0.5625,145,194,70,229
46.751,14:29:27.751,-9.703125,-0.983398,-0.668945,-0.012695,0.025391,-0.065918,0.,0.,0.,3.03125,-0.024414,0.043457,0.570312,129,176,69,232
46.851,14:29:27.851,-9.703125,-0.983398,-0.668945,-0.012695,0.025391,-0.065918,0.,0.,0.,3.03125,-0.024414,0.043457,0.570312,129,176,69,232
46.951,14:29:27.951,-9.746094,0.18457,0.061523,-0.008301,0.052002,-0.014893,0.,0.,0.,3.033203,-0.026855,0.045654,0.570312,126,196,69,239
47.051,14:29:28.051,-9.746094,0.18457,0.061523,-0.008301,0.052002,-0.014893,0.,0.,0.,3.033203,-0.026855,0.045654,0.570312,126,196,69,239
47.151,14:29:28.151,-10.46875,-0.717773,0.55957,0.026367,0.056396,-0.005127,0.,0.,0.,3.034668,-0.024902,0.043945,0.570312,121,203,70,243
47.251,14:29:28.251,-10.46875,-0.717773,0.55957,0.026367,0.056396,-0.005127,0.,0.,0.,3.034668,-0.024902,0.043945,0.570312,121,203,70,243
47.351,14:29:28.351,-10.095703,-0.151367,0.607422,-0.003174,0.036133,0.032959,0.,0.,0.,3.0354,-0.022217,0.046387,0.570312,118,203,70,247
47.451,14:29:28.451,-9.416016,-0.40332,0.431641,-0.037109,0.014893,-0.064697,0.,0.,0.,3.036621,-0.019775,0.044922,0.5625,131,202,71,251
47.551,14:29:28.551,-9.089844,-0.532227,-0.388672,0.016846,-0.051025,-0.024414,0.,0.,0.,3.038574,-0.018555,0.043457,0.5625,140,201,69,257
47.651,14:29:28.651,-9.200195,0.375,-0.740234,0.016846,0.064697,-0.031738,0.,0.,0.,3.041016,-0.015869,0.043457,0.5625,122,200,68,262
47.751,14:29:28.751,-9.655273,0.902344,0.194336,-0.010498,-0.325439,0.,0.,0.,0.,3.043213,-0.023926,0.026855,0.5625,117,203,68,275
47.851,14:29:28.851,-9.540039,-0.313477,-1.542969,-0.056396,0.218018,-0.081787,0.,0.,0.,3.041016,-0.013672,0.010254,0.5625,110,198,68,286
47.951,14:29:28.951,-9.540039,-0.313477,-1.542969,-0.056396,0.218018,-0.081787,0.,0.,0.,3.041016,-0.013672,0.010254,0.5625,110,198,68,286
48.051,14:29:29.051,-9.612305,0.898438,0.94043,-0.00415,0.009521,0.127686,0.,0.,0.,3.041748,-0.014893,0.018555,0.5625,104,197,70,289
48.151,14:29:29.151,-9.612305,0.898438,0.94043,-0.00415,0.009521,0.127686,0.,0.,0.,3.041748,-0.014893,0.018555,0.5625,104,197,70,289
48.251,14:29:29.251,-9.770508,-0.603516,-0.303711,-0.026367,-0.358398,-0.000977,0.,0.,0.,3.041748,-0.014404,0.009766,0.558594,99,197,70,292
48.351,14:29:29.351,-9.612305,0.532227,-0.360352,-0.000977,-0.003174,-0.218994,0.,0.,0.,3.04126,-0.012451,-0.005615,0.558594,89,196,70,294
48.451,14:29:29.451,-9.96582,-0.379883,-0.488281,-0.037109,-0.128662,-0.179688,0.,0.,0.,3.043213,-0.01123,-0.02002,0.554688,84,195,70,294
48.551,14:29:29.551,-9.96582,-0.379883,-0.488281,-0.037109,-0.128662,-0.179688,0.,0.,0.,3.043213,-0.01123,-0.02002,0.554688,84,195,70,294
48.651,14:29:29.651,-9.96582,-0.379883,-0.488281,-0.037109,-0.128662,-0.179688,0.,0.,0.,3.043213,-0.01123,-0.02002,0.554688,84,195,70,294
48.751,14:29:29.751,-9.96582,-0.379883,-0.488281,-0.037109,-0.128662,-0.179688,0.,0.,0.,3.043213,-0.01123,-0.02002,0.554688,84,195,70,294
48.851,14:29:29.851,-9.96582,-0.379883,-0.488281,-0.037109,-0.128662,-0.179688,0.,0.,0.,3.043213,-0.01123,-0.02002,0.554688,84,195,70,294
48.951,14:29:29.951,-9.970703,0.499023,0.370117,0.034912,0.000977,0.,0.,0.,0.,3.100586,0.033203,0.10498,0.5625,123,165,110,260
49.051,14:29:30.051,-9.970703,0.499023,0.370117,0.034912,0.000977,0.,0.,0.,0.,3.100586,0.033203,0.10498,0.5625,123,165,110,260
49.151,14:29:30.151,-10.057617,-0.222656,-1.115234,0.016846,-0.060547,-0.252197,0.,0.,0.,3.114014,-0.003662,0.066162,0.585938,135,174,103,251
49.251,14:29:30.251,-10.057617,-0.222656,-1.115234,0.016846,-0.060547,-0.252197,0.,0.,0.,3.114014,-0.003662,0.066162,0.585938,135,174,103,251
49.351,14:29:30.351,-9.841797,-0.285156,1.149414,-0.000977,-0.00415,-0.093506,0.,0.,0.,3.115723,-0.02002,0.058594,0.574219,138,178,101,252
49.451,14:29:30.451,-9.841797,-0.285156,1.149414,-0.000977,-0.00415,-0.093506,0.,0.,0.,3.115723,-0.02002,0.058594,0.574219,138,178,101,252
49.551,14:29:30.551,-9.836914,-0.807617,-0.194336,-0.029785,0.033936,-0.044678,0.,0.,0.,3.116455,-0.024902,0.053223,0.59375,139,181,97,254
49.651,14:29:30.651,-9.836914,-0.807617,-0.194336,-0.029785,0.033936,-0.044678,0.,0.,0.,3.116455,-0.024902,0.053223,0.59375,139,181,97,254
49.751,14:29:30.751,-9.879883,0.161133,0.033203,-0.04248,-0.014893,0.003174,0.,0.,0.,3.114502,-0.024902,0.050781,0.59375,142,185,94,253
49.851,14:29:30.851,-9.879883,0.161133,0.033203,-0.04248,-0.014893,0.003174,0.,0.,0.,3.114502,-0.024902,0.050781,0.59375,142,185,94,253
49.951,14:29:30.951,-9.549805,-0.793945,-0.963867,-0.006348,0.055176,-0.30542,0.,0.,0.,3.113037,-0.035156,0.051514,0.589844,141,188,91,253
50.051,14:29:31.051,-10.023438,0.8125,0.108398,-0.014893,0.102051,-0.159424,0.,0.,0.,3.112305,-0.041016,0.048096,0.585938,141,191,88,254
50.151,14:29:31.151,-10.023438,0.8125,0.108398,-0.014893,0.102051,-0.159424,0.,0.,0.,3.112305,-0.041016,0.048096,0.585938,141,191,88,254
50.251,14:29:31.251,-10.023438,0.8125,0.108398,-0.014893,0.102051,-0.159424,0.,0.,0.,3.112305,-0.041016,0.048096,0.585938,141,191,88,254
50.351,14:29:31.351,-10.023438,0.8125,0.108398,-0.014893,0.102051,-0.159424,0.,0.,0.,3.112305,-0.041016,0.048096,0.585938,141,191,88,254
50.451,14:29:31.451,-23.810547,4.6875,-15.963867,1.292969,3.103027,-4.795166,0.,0.,0.,-2.966553,-0.137695,-0.087402,0.273438,129,211,71,88
50.551,14:29:31.551,-23.810547,4.6875,-15.963867,1.292969,3.103027,-4.795166,0.,0.,0.,-2.966553,-0.137695,-0.087402,0.273438,129,211,71,88
50.651,14:29:31.651,-12.225586,16.420898,8.482422,0.990723,2.908447,-1.177002,0.,0.,0.,-3.009521,-0.459229,0.311768,0.273438,113,215,71,84
50.751,14:29:31.751,-12.225586,16.420898,8.482422,0.990723,2.908447,-1.177002,0.,0.,0.,-3.009521,-0.459229,0.311768,0.273438,113,215,71,84
50.851,14:29:31.851,-7.883789,6.451172,9.285156,0.933105,-0.99707,4.011963,0.,0.,0.,-2.936768,-0.233643,0.376465,0.273438,113,138,71,106
50.951,14:29:31.951,-5.332031,0.541016,-0.217773,0.949219,-2.686035,1.897461,0.,0.,0.,-2.816406,0.146484,0.212646,0.273438,113,24,73,175
51.051,14:29:32.051,-5.767578,-2.69043,4.839844,0.453125,1.337646,3.665039,0.,0.,0.,-2.699707,0.045166,0.14209,0.203125,114,210,71,85
51.151,14:29:32.151,-7.045898,-3.360352,0.75,0.205322,-1.021484,0.360596,0.,0.,0.,-2.669189,0.205078,0.148438,0.21875,117,209,73,85
51.251,14:29:32.251,-13.776367,-2.415039,-3.708984,-0.044678,-1.019287,-4.114014,0.,0.,0.,-2.6875,0.023682,0.002441,0.207031,118,209,73,88
51.351,14:29:32.351,-13.776367,-2.415039,-3.708984,-0.044678,-1.019287,-4.114014,0.,0.,0.,-2.6875,0.023682,0.002441,0.207031,118,209,73,88
51.451,14:29:32.451,-9.104492,4.036133,0.958984,0.119141,0.588379,1.274902,0.,0.,0.,-2.696533,-0.145264,0.047852,0.222656,121,210,73,88
51.551,14:29:32.551,-9.104492,4.036133,0.958984,0.119141,0.588379,1.274902,0.,0.,0.,-2.696533,-0.145264,0.047852,0.222656,121,210,73,88
51.651,14:29:32.651,-5.676758,-5.077148,-2.511719,-0.060547,-0.454346,0.935303,0.,0.,0.,-2.684326,0.094238,0.022949,0.234375,121,212,74,86
51.751,14:29:32.751,-5.676758,-5.077148,-2.511719,-0.060547,-0.454346,0.935303,0.,0.,0.,-2.684326,0.094238,0.022949,0.234375,121,212,74,86
51.851,14:29:32.851,-9.171875,-3.179688,0.474609,-0.063721,0.529785,-2.35498,0.,0.,0.,-2.692627,0.050537,0.037354,0.230469,118,210,75,86
51.951,14:29:32.951,-10.349609,4.254883,-0.322266,0.024414,-0.170166,1.100342,0.,0.,0.,-2.704102,-0.074951,0.036377,0.230469,118,210,72,86
52.051,14:29:33.051,-7.783203,-1.84375,-0.008789,0.027588,0.051025,0.357422,0.,0.,0.,-2.699463,0.070801,0.039307,0.238281,118,211,71,87
52.151,14:29:33.151,-9.046875,2.871094,0.12793,0.032959,0.045654,-0.046631,0.,0.,0.,-2.709717,-0.039795,0.034912,0.238281,119,212,71,87
52.251,14:29:33.251,-8.90332,-2.595703,-0.132812,-0.014893,-0.026367,0.009521,0.,0.,0.,-2.708496,0.039551,0.036621,0.238281,120,212,72,103
52.351,14:29:33.351,-9.473633,1.839844,0.080078,-0.007324,0.028564,0.418213,0.,0.,0.,-2.71582,-0.011719,0.037354,0.238281,121,212,72,128
52.451,14:29:33.451,-9.473633,1.839844,0.080078,-0.007324,0.028564,0.418213,0.,0.,0.,-2.71582,-0.011719,0.037354,0.238281,121,212,72,128
52.551,14:29:33.551,-9.741211,0.370117,0.070312,-0.013672,0.027588,-0.041504,0.,0.,0.,-2.730225,0.003174,0.037109,0.242188,123,212,72,87
52.651,14:29:33.651,-9.741211,0.370117,0.070312,-0.013672,0.027588,-0.041504,0.,0.,0.,-2.730225,0.003174,0.037109,0.242188,123,212,72,87
52.751,14:29:33.751,-9.741211,0.370117,0.070312,-0.013672,0.027588,-0.041504,0.,0.,0.,-2.730225,0.003174,0.037109,0.242188,123,212,72,87
52.851,14:29:33.851,-9.741211,0.370117,0.070312,-0.013672,0.027588,-0.041504,0.,0.,0.,-2.730225,0.003174,0.037109,0.242188,123,212,72,87
52.951,14:29:33.951,-9.703125,-0.189453,-0.037109,-0.013672,0.016846,-0.039307,0.,0.,0.,-2.737549,0.006592,0.036865,0.242188,123,213,73,87
53.051,14:29:34.051,-9.703125,-0.189453,-0.037109,-0.013672,0.016846,-0.039307,0.,0.,0.,-2.737549,0.006592,0.036865,0.242188,123,213,73,87
53.151,14:29:34.151,-9.72168,-0.056641,0.008789,-0.010498,0.013672,0.008301,0.,0.,0.,-2.741455,0.005615,0.036865,0.242188,123,213,73,87
53.251,14:29:34.251,-9.72168,-0.056641,0.008789,-0.010498,0.013672,0.008301,0.,0.,0.,-2.741455,0.005615,0.036865,0.242188,123,213,73,87
53.351,14:29:34.351,-9.741211,0.056641,0.094727,-0.010498,0.012695,-0.006348,0.,0.,0.,-2.745117,0.004639,0.037109,0.242188,123,214,72,87
53.451,14:29:34.451,-9.741211,0.056641,0.094727,-0.010498,0.012695,-0.006348,0.,0.,0.,-2.745117,0.004639,0.037109,0.242188,123,214,72,87
53.551,14:29:34.551,-9.683594,0.080078,0.003906,-0.011475,0.022217,-0.034912,0.,0.,0.,-2.748779,0.004639,0.037109,0.242188,125,214,71,87
53.651,14:29:34.651,-9.683594,0.080078,0.003906,-0.011475,0.022217,-0.034912,0.,0.,0.,-2.748779,0.004639,0.037109,0.242188,125,214,71,87
53.751,14:29:34.751,-9.731445,0.008789,-0.02832,-0.010498,0.016846,-0.040283,0.,0.,0.,-2.752441,0.004883,0.037109,0.242188,125,215,71,88
53.851,14:29:34.851,-9.726562,0.003906,0.033203,-0.015869,0.014893,-0.027588,0.,0.,0.,-2.756104,0.005127,0.037109,0.242188,125,215,71,88
53.951,14:29:34.951,-9.683594,-0.02832,0.056641,-0.009521,0.016846,-0.019043,0.,0.,0.,-2.759766,0.004883,0.037109,0.242188,125,215,71,88
54.051,14:29:35.051,-9.683594,-0.02832,0.056641,-0.009521,0.016846,-0.019043,0.,0.,0.,-2.759766,0.004883,0.037109,0.242188,125,215,71,88
54.151,14:29:35.151,-9.827148,0.02832,0.080078,-0.008301,0.014893,-0.02124,0.,0.,0.,-2.763428,0.004639,0.037109,0.242188,125,216,71,88
54.251,14:29:35.251,-9.827148,0.02832,0.080078,-0.008301,0.014893,-0.02124,0.,0.,0.,-2.763428,0.004639,0.037109,0.242188,125,216,71,88
54.351,14:29:35.351,-9.765625,-0.033203,0.041992,-0.012695,0.015869,-0.024414,0.,0.,0.,-2.767334,0.004395,0.037354,0.242188,125,217,71,88
54.451,14:29:35.451,-9.765625,-0.033203,0.041992,-0.012695,0.015869,-0.024414,0.,0.,0.,-2.767334,0.004395,0.037354,0.242188,125,217,71,88
54.551,14:29:35.551,-9.78418,-0.084961,0.080078,-0.013672,0.014893,-0.026367,0.,0.,0.,-2.774414,0.004395,0.037354,0.242188,124,218,70,87
54.651,14:29:35.651,-9.708008,0.003906,0.066406,-0.013672,0.016846,-0.022217,0.,0.,0.,-2.778076,0.004395,0.037354,0.242188,124,220,69,87
54.751,14:29:35.751,-9.750977,-0.046875,0.037109,-0.012695,0.015869,-0.024414,0.,0.,0.,-2.781494,0.004395,0.037354,0.242188,123,221,69,88
54.851,14:29:35.851,-9.712891,0.071289,0.037109,-0.012695,0.02002,-0.027588,0.,0.,0.,-2.785156,0.00415,0.037354,0.242188,123,221,69,88
54.951,14:29:35.951,-9.669922,-0.013672,-0.008789,-0.012695,0.018066,-0.026367,0.,0.,0.,-2.788574,0.00415,0.037354,0.242188,126,221,69,88
55.051,14:29:36.051,-9.708008,0.018555,-0.013672,-0.013672,0.016846,-0.026367,0.,0.,0.,-2.792236,0.00415,0.037598,0.242188,128,223,68,87
55.151,14:29:36.151,-9.708008,0.018555,-0.013672,-0.013672,0.016846,-0.026367,0.,0.,0.,-2.792236,0.00415,0.037598,0.242188,128,223,68,87
55.251,14:29:36.251,-9.779297,0.071289,0.023438,-0.012695,0.014893,-0.025391,0.,0.,0.,-2.795898,0.003906,0.037598,0.242188,127,223,68,87
55.351,14:29:36.351,-9.779297,0.071289,0.023438,-0.012695,0.014893,-0.025391,0.,0.,0.,-2.795898,0.003906,0.037598,0.242188,127,223,68,87
55.451,14:29:36.451,-9.693359,0.02832,0.099609,-0.014893,0.018066,-0.027588,0.,0.,0.,-2.799316,0.003906,0.037598,0.242188,127,221,68,87
55.551,14:29:36.551,-9.693359,0.02832,0.099609,-0.014893,0.018066,-0.027588,0.,0.,0.,-2.799316,0.003906,0.037598,0.242188,127,221,68,87
55.651,14:29:36.651,-9.798828,-0.046875,-0.008789,-0.013672,0.014893,-0.024414,0.,0.,0.,-2.802979,0.003662,0.037598,0.242188,127,221,68,88
55.751,14:29:36.751,-9.798828,-0.046875,-0.008789,-0.013672,0.014893,-0.024414,0.,0.,0.,-2.802979,0.003662,0.037598,0.242188,127,221,68,88
55.851,14:29:36.851,-9.673828,0.02832,-0.041992,-0.011475,0.015869,-0.027588,0.,0.,0.,-2.806396,0.003662,0.037598,0.242188,128,221,67,88
55.951,14:29:36.951,-9.789062,-0.084961,0.051758,-0.012695,0.015869,-0.024414,0.,0.,0.,-2.809814,0.003662,0.037598,0.242188,131,221,67,88
56.051,14:29:37.051,-9.717773,0.071289,0.123047,-0.010498,0.013672,-0.025391,0.,0.,0.,-2.813232,0.003662,0.037842,0.242188,133,222,67,87
56.151,14:29:37.151,-9.703125,0.018555,0.075195,-0.010498,0.014893,-0.025391,0.,0.,0.,-2.816895,0.003418,0.037842,0.242188,130,224,67,87
56.251,14:29:37.251,-9.736328,0.02832,-0.003906,-0.012695,0.018066,-0.027588,0.,0.,0.,-2.820557,0.003418,0.037842,0.242188,128,228,67,87
56.351,14:29:37.351,-9.688477,-0.023438,0.02832,-0.015869,0.013672,-0.026367,0.,0.,0.,-2.827393,0.003174,0.037842,0.242188,127,228,67,87
56.451,14:29:37.451,-9.673828,-0.084961,-0.013672,-0.012695,0.015869,-0.027588,0.,0.,0.,-2.830811,0.003174,0.037842,0.242188,127,226,67,87
56.551,14:29:37.551,-9.736328,-0.003906,0.066406,-0.009521,0.015869,-0.027588,0.,0.,0.,-2.834229,0.003174,0.037842,0.242188,126,224,67,87
56.651,14:29:37.651,-9.736328,-0.003906,0.066406,-0.009521,0.015869,-0.027588,0.,0.,0.,-2.834229,0.003174,0.037842,0.242188,126,224,67,87
56.751,14:29:37.751,-9.789062,-0.003906,0.061523,-0.011475,0.015869,-0.026367,0.,0.,0.,-2.837402,0.00293,0.038086,0.242188,125,223,67,88
56.851,14:29:37.851,-9.789062,-0.003906,0.061523,-0.011475,0.015869,-0.026367,0.,0.,0.,-2.837402,0.00293,0.038086,0.242188,125,223,67,88
56.951,14:29:37.951,-9.717773,-0.018555,0.046875,-0.010498,0.018066,-0.027588,0.,0.,0.,-2.84082,0.00293,0.038086,0.242188,124,223,67,88
57.051,14:29:38.051,-9.717773,0.041992,0.037109,-0.012695,0.014893,-0.024414,0.,0.,0.,-2.843994,0.00293,0.038086,0.242188,124,222,67,88
57.151,14:29:38.151,-9.731445,-0.071289,0.02832,-0.011475,0.016846,-0.027588,0.,0.,0.,-2.847412,0.002686,0.038086,0.242188,123,222,67,87
57.251,14:29:38.251,-9.703125,0.,0.033203,-0.010498,0.018066,-0.025391,0.,0.,0.,-2.85083,0.002686,0.038086,0.242188,122,224,67,87
57.351,14:29:38.351,-9.703125,0.,0.033203,-0.010498,0.018066,-0.025391,0.,0.,0.,-2.85083,0.002686,0.038086,0.242188,122,224,67,87
57.451,14:29:38.451,-9.72168,-0.008789,0.046875,-0.014893,0.018066,-0.025391,0.,0.,0.,-2.854004,0.002686,0.03833,0.242188,121,228,67,87
57.551,14:29:38.551,-9.72168,-0.008789,0.046875,-0.014893,0.018066,-0.025391,0.,0.,0.,-2.854004,0.002686,0.03833,0.242188,121,228,67,87
57.651,14:29:38.651,-9.750977,0.008789,-0.003906,-0.012695,0.014893,-0.025391,0.,0.,0.,-2.857422,0.002441,0.03833,0.242188,120,224,67,87
57.751,14:29:38.751,-9.750977,0.008789,-0.003906,-0.012695,0.014893,-0.025391,0.,0.,0.,-2.857422,0.002441,0.03833,0.242188,120,224,67,87
57.851,14:29:38.851,-9.808594,0.041992,0.018555,-0.015869,0.016846,-0.025391,0.,0.,0.,-2.860596,0.002441,0.03833,0.242188,119,222,67,87
57.951,14:29:38.951,-9.808594,0.041992,0.018555,-0.015869,0.016846,-0.025391,0.,0.,0.,-2.860596,0.002441,0.03833,0.242188,119,222,67,87
58.051,14:29:39.051,-9.683594,-0.008789,0.037109,-0.013672,0.016846,-0.026367,0.,0.,0.,-2.86377,0.002441,0.03833,0.242188,118,221,67,87
58.151,14:29:39.151,-9.683594,-0.008789,0.037109,-0.013672,0.016846,-0.026367,0.,0.,0.,-2.86377,0.002441,0.03833,0.242188,118,221,67,87
58.251,14:29:39.251,-9.708008,-0.023438,0.041992,-0.014893,0.014893,-0.025391,0.,0.,0.,-2.867188,0.002441,0.03833,0.242188,117,221,67,88
58.351,14:29:39.351,-9.708008,-0.023438,0.041992,-0.014893,0.014893,-0.025391,0.,0.,0.,-2.867188,0.002441,0.03833,0.242188,117,221,67,88
58.451,14:29:39.451,-9.678711,0.033203,0.066406,-0.010498,0.019043,-0.026367,0.,0.,0.,-2.870361,0.002197,0.03833,0.242188,117,221,67,88
58.551,14:29:39.551,-9.678711,0.033203,0.066406,-0.010498,0.019043,-0.026367,0.,0.,0.,-2.870361,0.002197,0.03833,0.242188,117,221,67,88
58.651,14:29:39.651,-9.712891,0.008789,0.066406,-0.014893,0.013672,-0.028564,0.,0.,0.,-2.873535,0.002197,0.03833,0.242188,116,221,67,87
58.751,14:29:39.751,-9.813477,-0.061523,-0.02832,-0.014893,0.013672,-0.024414,0.,0.,0.,-2.879639,0.002197,0.03833,0.242188,115,228,66,87
58.851,14:29:39.851,-9.765625,0.023438,0.041992,-0.011475,0.015869,-0.025391,0.,0.,0.,-2.883057,0.001953,0.038574,0.242188,115,222,66,87
58.951,14:29:39.951,-9.808594,0.104492,0.037109,-0.013672,0.015869,-0.027588,0.,0.,0.,-2.88623,0.001953,0.03833,0.242188,115,219,66,88
59.051,14:29:40.051,-9.703125,-0.018555,0.033203,-0.010498,0.015869,-0.02124,0.,0.,0.,-2.889404,0.001953,0.03833,0.242188,115,218,66,88
59.151,14:29:40.151,-9.750977,-0.013672,0.023438,-0.012695,0.018066,-0.024414,0.,0.,0.,-2.892334,0.001953,0.038574,0.242188,115,218,66,88
59.251,14:29:40.251,-9.755859,-0.056641,-0.003906,-0.012695,0.015869,-0.028564,0.,0.,0.,-2.895508,0.001709,0.038574,0.242188,115,220,66,87
59.351,14:29:40.351,-9.717773,-0.041992,0.070312,-0.012695,0.013672,-0.026367,0.,0.,0.,-2.898438,0.001709,0.038574,0.242188,115,222,66,87
59.451,14:29:40.451,-9.717773,-0.041992,0.070312,-0.012695,0.013672,-0.026367,0.,0.,0.,-2.898438,0.001709,0.038574,0.242188,115,222,66,87
59.551,14:29:40.551,-9.741211,-0.02832,0.,-0.013672,0.019043,-0.027588,0.,0.,0.,-2.901367,0.001709,0.038574,0.242188,115,220,66,87
59.651,14:29:40.651,-9.741211,-0.02832,0.,-0.013672,0.019043,-0.027588,0.,0.,0.,-2.901367,0.001709,0.038574,0.242188,115,220,66,87
59.751,14:29:40.751,-9.731445,-0.061523,0.008789,-0.013672,0.015869,-0.026367,0.,0.,0.,-2.904541,0.001465,0.038818,0.242188,115,219,66,87
59.851,14:29:40.851,-9.731445,-0.061523,0.008789,-0.013672,0.015869,-0.026367,0.,0.,0.,-2.904541,0.001465,0.038818,0.242188,115,219,66,87
59.951,14:29:40.951,-9.655273,0.02832,0.013672,-0.012695,0.016846,-0.026367,0.,0.,0.,-2.907471,0.001465,0.038818,0.242188,115,217,66,87
60.051,14:29:41.051,-9.655273,0.02832,0.013672,-0.012695,0.016846,-0.026367,0.,0.,0.,-2.907471,0.001465,0.038818,0.242188,115,217,66,87
60.151,14:29:41.151,-9.746094,0.033203,0.137695,-0.011475,0.02124,-0.026367,0.,0.,0.,-2.910645,0.001465,0.038818,0.242188,115,216,66,87
60.251,14:29:41.251,-9.678711,0.008789,0.037109,-0.015869,0.015869,-0.026367,0.,0.,0.,-2.913574,0.001465,0.038818,0.242188,116,215,66,87
60.351,14:29:41.351,-9.650391,0.023438,0.070312,-0.011475,0.016846,-0.026367,0.,0.,0.,-2.916748,0.001221,0.038818,0.242188,116,215,66,88
60.451,14:29:41.451,-9.688477,0.013672,0.033203,-0.010498,0.016846,-0.026367,0.,0.,0.,-2.919678,0.001221,0.038818,0.242188,116,215,66,88
60.551,14:29:41.551,-9.655273,-0.075195,0.046875,-0.014893,0.016846,-0.024414,0.,0.,0.,-2.922607,0.001221,0.039062,0.242188,116,214,66,88
60.651,14:29:41.651,-9.655273,-0.075195,0.046875,-0.014893,0.016846,-0.024414,0.,0.,0.,-2.922607,0.001221,0.039062,0.242188,116,214,66,88
60.751,14:29:41.751,-9.779297,-0.023438,0.108398,-0.013672,0.018066,-0.025391,0.,0.,0.,-2.925537,0.001221,0.039062,0.242188,116,214,66,88
60.851,14:29:41.851,-9.779297,-0.023438,0.108398,-0.013672,0.018066,-0.025391,0.,0.,0.,-2.925537,0.001221,0.039062,0.242188,116,214,66,88
60.951,14:29:41.951,-9.770508,-0.023438,0.041992,-0.013672,0.016846,-0.027588,0.,0.,0.,-2.928467,0.000977,0.039062,0.242188,116,214,66,88
61.051,14:29:42.051,-9.770508,-0.023438,0.041992,-0.013672,0.016846,-0.027588,0.,0.,0.,-2.928467,0.000977,0.039062,0.242188,116,214,66,88
61.151,14:29:42.151,-9.717773,0.,-0.008789,-0.012695,0.013672,-0.025391,0.,0.,0.,-2.931396,0.000977,0.039062,0.242188,117,214,66,88
61.251,14:29:42.251,-9.717773,0.,-0.008789,-0.012695,0.013672,-0.025391,0.,0.,0.,-2.931396,0.000977,0.039062,0.242188,117,214,66,88
61.351,14:29:42.351,-9.693359,-0.041992,0.037109,-0.012695,0.019043,-0.023193,0.,0.,0.,-2.934326,0.000977,0.038818,0.242188,117,214,66,88
61.451,14:29:42.451,-9.693359,-0.041992,0.037109,-0.012695,0.019043,-0.023193,0.,0.,0.,-2.934326,0.000977,0.038818,0.242188,117,214,66,88
61.551,14:29:42.551,-9.755859,-0.023438,0.046875,-0.011475,0.014893,-0.027588,0.,0.,0.,-2.937256,0.000977,0.038818,0.242188,117,214,66,88
61.651,14:29:42.651,-9.660156,-0.008789,0.099609,-0.011475,0.014893,-0.026367,0.,0.,0.,-2.940186,0.000977,0.039062,0.242188,118,214,66,88
61.751,14:29:42.751,-9.698242,0.041992,0.018555,-0.011475,0.015869,-0.024414,0.,0.,0.,-2.943115,0.000977,0.039062,0.242188,119,214,66,88
61.851,14:29:42.851,-9.698242,0.041992,0.018555,-0.011475,0.015869,-0.024414,0.,0.,0.,-2.943115,0.000977,0.039062,0.242188,119,214,66,88
61.951,14:29:42.951,-9.678711,0.018555,0.008789,-0.013672,0.018066,-0.025391,0.,0.,0.,-2.946045,0.000977,0.039062,0.242188,119,213,66,88
62.051,14:29:43.051,-9.678711,0.018555,0.008789,-0.013672,0.018066,-0.025391,0.,0.,0.,-2.946045,0.000977,0.039062,0.242188,119,213,66,88
62.151,14:29:43.151,-9.870117,0.046875,0.041992,-0.011475,0.018066,-0.027588,0.,0.,0.,-2.94873,0.000732,0.039062,0.242188,119,213,66,87
62.251,14:29:43.251,-9.870117,0.046875,0.041992,-0.011475,0.018066,-0.027588,0.,0.,0.,-2.94873,0.000732,0.039062,0.242188,119,213,66,87
62.351,14:29:43.351,-9.798828,0.033203,0.003906,-0.011475,0.015869,-0.026367,0.,0.,0.,-2.95166,0.000732,0.039062,0.242188,119,213,66,87
62.451,14:29:43.451,-9.803711,0.099609,-0.023438,-0.010498,0.019043,-0.024414,0.,0.,0.,-2.954346,0.000732,0.039062,0.242188,119,213,66,87
62.551,14:29:43.551,-9.698242,0.02832,0.033203,-0.014893,0.013672,-0.026367,0.,0.,0.,-2.957275,0.000488,0.039062,0.242188,119,213,66,87
62.651,14:29:43.651,-9.698242,0.02832,0.033203,-0.014893,0.013672,-0.026367,0.,0.,0.,-2.957275,0.000488,0.039062,0.242188,119,213,66,87
62.751,14:29:43.751,-9.731445,-0.008789,0.061523,-0.013672,0.016846,-0.026367,0.,0.,0.,-2.960205,0.000488,0.039062,0.242188,119,213,66,87
62.851,14:29:43.851,-9.731445,-0.008789,0.061523,-0.013672,0.016846,-0.026367,0.,0.,0.,-2.960205,0.000488,0.039062,0.242188,119,213,66,87
62.951,14:29:43.951,-9.808594,-0.008789,-0.041992,-0.013672,0.013672,-0.025391,0.,0.,0.,-2.962891,0.000488,0.039062,0.242188,119,213,66,87
63.051,14:29:44.051,-9.808594,-0.008789,-0.041992,-0.013672,0.013672,-0.025391,0.,0.,0.,-2.962891,0.000488,0.039062,0.242188,119,213,66,87
63.151,14:29:44.151,-9.72168,0.,0.056641,-0.012695,0.018066,-0.026367,0.,0.,0.,-2.96582,0.000488,0.039062,0.242188,119,213,66,87
63.251,14:29:44.251,-9.760742,-0.02832,0.104492,-0.015869,0.016846,-0.024414,0.,0.,0.,-2.968506,0.000488,0.039062,0.242188,119,213,66,87
63.351,14:29:44.351,-9.665039,0.,0.046875,-0.014893,0.013672,-0.026367,0.,0.,0.,-2.971191,0.000244,0.039062,0.242188,120,214,66,87
63.451,14:29:44.451,-9.708008,-0.023438,0.066406,-0.011475,0.016846,-0.027588,0.,0.,0.,-2.973877,0.000244,0.039062,0.242188,120,214,66,87
63.551,14:29:44.551,-9.731445,-0.071289,0.008789,-0.011475,0.012695,-0.028564,0.,0.,0.,-2.976562,0.000244,0.039062,0.242188,120,214,66,87
63.651,14:29:44.651,-9.731445,-0.071289,0.008789,-0.011475,0.012695,-0.028564,0.,0.,0.,-2.976562,0.000244,0.039062,0.242188,120,214,66,87
63.751,14:29:44.751,-9.683594,0.018555,0.046875,-0.015869,0.015869,-0.028564,0.,0.,0.,-2.981934,0.000244,0.039062,0.242188,120,214,66,88
63.851,14:29:44.851,-9.683594,0.018555,0.046875,-0.015869,0.015869,-0.028564,0.,0.,0.,-2.981934,0.000244,0.039062,0.242188,120,214,66,88
63.951,14:29:44.951,-9.808594,-0.033203,0.056641,-0.013672,0.015869,-0.026367,0.,0.,0.,-2.984863,0.000244,0.039062,0.242188,120,214,66,88
64.051,14:29:45.051,-9.808594,-0.033203,0.056641,-0.013672,0.015869,-0.026367,0.,0.,0.,-2.984863,0.000244,0.039062,0.242188,120,214,66,88
64.151,14:29:45.151,-9.770508,0.,-0.003906,-0.009521,0.019043,-0.027588,0.,0.,0.,-2.987305,0.000244,0.039062,0.242188,121,214,66,88
64.251,14:29:45.251,-9.770508,0.,-0.003906,-0.009521,0.019043,-0.027588,0.,0.,0.,-2.987305,0.000244,0.039062,0.242188,121,214,66,88
64.351,14:29:45.351,-9.750977,0.046875,0.023438,-0.011475,0.013672,-0.024414,0.,0.,0.,-2.98999,0.,0.039062,0.242188,121,214,67,88
64.451,14:29:45.451,-9.750977,0.046875,0.023438,-0.011475,0.013672,-0.024414,0.,0.,0.,-2.98999,0.,0.039062,0.242188,121,214,67,88
64.551,14:29:45.551,-9.693359,-0.023438,-0.037109,-0.010498,0.014893,-0.026367,0.,0.,0.,-2.992432,0.,0.039062,0.242188,121,214,67,88
64.651,14:29:45.651,-9.736328,0.,0.018555,-0.012695,0.014893,-0.029785,0.,0.,0.,-2.995117,0.,0.039062,0.242188,121,214,67,88
64.751,14:29:45.751,-9.708008,-0.075195,0.003906,-0.012695,0.016846,-0.028564,0.,0.,0.,-2.997803,0.,0.039307,0.242188,121,214,67,88
64.851,14:29:45.851,-9.803711,0.013672,0.041992,-0.012695,0.014893,-0.026367,0.,0.,0.,-3.000488,0.,0.039307,0.242188,121,214,67,88
64.951,14:29:45.951,-9.669922,0.023438,0.018555,-0.012695,0.018066,-0.024414,0.,0.,0.,-3.00293,0.,0.039307,0.242188,121,214,67,88
65.051,14:29:46.051,-9.741211,0.037109,-0.013672,-0.013672,0.015869,-0.028564,0.,0.,0.,-3.005615,0.,0.039062,0.242188,121,214,67,88
65.151,14:29:46.151,-9.708008,-0.023438,0.061523,-0.013672,0.019043,-0.022217,0.,0.,0.,-3.008057,0.,0.039062,0.242188,120,215,67,88
65.251,14:29:46.251,-9.78418,0.02832,0.033203,-0.014893,0.018066,-0.026367,0.,0.,0.,-3.010498,0.,0.039062,0.242188,120,215,67,88
65.351,14:29:46.351,-9.78418,0.02832,0.033203,-0.014893,0.018066,-0.026367,0.,0.,0.,-3.010498,0.,0.039062,0.242188,120,215,67,88
65.451,14:29:46.451,-9.683594,0.008789,-0.003906,-0.014893,0.012695,-0.029785,0.,0.,0.,-3.012939,0.,0.039062,0.242188,120,215,67,88
65.551,14:29:46.551,-9.683594,0.008789,-0.003906,-0.014893,0.012695,-0.029785,0.,0.,0.,-3.012939,0.,0.039062,0.242188,120,215,67,88
65.651,14:29:46.651,-9.808594,-0.018555,0.104492,-0.013672,0.013672,-0.026367,0.,0.,0.,-3.015625,-0.000244,0.039307,0.242188,120,215,67,88
65.751,14:29:46.751,-9.808594,-0.018555,0.104492,-0.013672,0.013672,-0.026367,0.,0.,0.,-3.015625,-0.000244,0.039307,0.242188,120,215,67,88
65.851,14:29:46.851,-9.717773,-0.033203,0.041992,-0.014893,0.012695,-0.026367,0.,0.,0.,-3.018066,-0.000244,0.039062,0.242188,119,215,67,88
65.951,14:29:46.951,-9.645508,-0.008789,0.075195,-0.010498,0.014893,-0.027588,0.,0.,0.,-3.020508,-0.000244,0.039062,0.242188,119,214,67,88
66.051,14:29:47.051,-9.708008,-0.003906,-0.070312,-0.012695,0.015869,-0.026367,0.,0.,0.,-3.022949,-0.000244,0.039062,0.242188,119,214,67,88
66.151,14:29:47.151,-9.708008,-0.003906,-0.070312,-0.012695,0.015869,-0.026367,0.,0.,0.,-3.022949,-0.000244,0.039062,0.242188,119,214,67,88
66.251,14:29:47.251,-9.774414,0.018555,0.046875,-0.013672,0.016846,-0.024414,0.,0.,0.,-3.025391,-0.000244,0.039062,0.242188,120,214,67,88
66.351,14:29:47.351,-9.774414,0.018555,0.046875,-0.013672,0.016846,-0.024414,0.,0.,0.,-3.025391,-0.000244,0.039062,0.242188,120,214,67,88
66.451,14:29:47.451,-9.789062,-0.051758,0.070312,-0.013672,0.015869,-0.026367,0.,0.,0.,-3.027832,-0.000244,0.039062,0.242188,119,215,66,88
66.551,14:29:47.551,-9.789062,-0.051758,0.070312,-0.013672,0.015869,-0.026367,0.,0.,0.,-3.027832,-0.000244,0.039062,0.242188,119,215,66,88
66.651,14:29:47.651,-9.660156,0.023438,0.02832,-0.015869,0.013672,-0.025391,0.,0.,0.,-3.030273,-0.000488,0.039062,0.242188,118,215,66,88
66.751,14:29:47.751,-9.660156,0.023438,0.02832,-0.015869,0.013672,-0.025391,0.,0.,0.,-3.030273,-0.000488,0.039062,0.242188,118,215,66,88
66.851,14:29:47.851,-9.760742,-0.013672,-0.023438,-0.011475,0.014893,-0.024414,0.,0.,0.,-3.032715,-0.000488,0.039062,0.242188,118,215,66,88
66.951,14:29:47.951,-9.760742,-0.013672,-0.023438,-0.011475,0.014893,-0.024414,0.,0.,0.,-3.032715,-0.000488,0.039062,0.242188,118,215,66,88
67.051,14:29:48.051,-9.798828,0.023438,0.013672,-0.011475,0.014893,-0.027588,0.,0.,0.,-3.0354,-0.000488,0.039062,0.242188,118,214,66,88
67.151,14:29:48.151,-9.798828,0.023438,0.013672,-0.011475,0.014893,-0.027588,0.,0.,0.,-3.0354,-0.000488,0.039062,0.242188,118,214,66,88
67.251,14:29:48.251,-9.770508,-0.008789,-0.003906,-0.011475,0.013672,-0.025391,0.,0.,0.,-3.037598,-0.000488,0.039307,0.242188,117,214,66,88
67.351,14:29:48.351,-9.770508,-0.008789,-0.003906,-0.011475,0.013672,-0.025391,0.,0.,0.,-3.037598,-0.000488,0.039307,0.242188,117,214,66,88
67.451,14:29:48.451,-9.712891,0.008789,-0.023438,-0.013672,0.016846,-0.026367,0.,0.,0.,-3.040039,-0.000488,0.039307,0.242188,117,214,66,87
67.551,14:29:48.551,-9.712891,0.008789,-0.023438,-0.013672,0.016846,-0.026367,0.,0.,0.,-3.040039,-0.000488,0.039307,0.242188,117,214,66,87
67.651,14:29:48.651,-9.693359,-0.033203,0.089844,-0.012695,0.019043,-0.026367,0.,0.,0.,-3.04248,-0.000488,0.039062,0.242188,116,214,66,87
67.751,14:29:48.751,-9.693359,-0.033203,0.089844,-0.012695,0.019043,-0.026367,0.,0.,0.,-3.04248,-0.000488,0.039062,0.242188,116,214,66,87
67.851,14:29:48.851,-9.731445,0.023438,0.075195,-0.013672,0.015869,-0.025391,0.,0.,0.,-3.044922,-0.000732,0.039062,0.242188,116,214,66,87
67.951,14:29:48.951,-9.731445,0.023438,0.075195,-0.013672,0.015869,-0.025391,0.,0.,0.,-3.044922,-0.000732,0.039062,0.242188,116,214,66,87
68.051,14:29:49.051,-9.779297,0.037109,0.118164,-0.013672,0.010498,-0.026367,0.,0.,0.,-3.049561,-0.000732,0.039062,0.242188,116,215,66,87
68.151,14:29:49.151,-9.750977,-0.041992,-0.02832,-0.011475,0.013672,-0.027588,0.,0.,0.,-3.051758,-0.000732,0.039062,0.242188,115,215,66,87
68.251,14:29:49.251,-9.712891,-0.018555,0.051758,-0.012695,0.013672,-0.027588,0.,0.,0.,-3.054199,-0.000732,0.039062,0.242188,115,215,66,87
68.351,14:29:49.351,-9.822266,0.013672,0.02832,-0.013672,0.015869,-0.026367,0.,0.,0.,-3.056396,-0.000732,0.039062,0.242188,115,214,66,87
68.451,14:29:49.451,-9.717773,-0.023438,0.,-0.011475,0.016846,-0.025391,0.,0.,0.,-3.058594,-0.000977,0.039062,0.242188,115,214,66,87
68.551,14:29:49.551,-9.717773,-0.023438,0.,-0.011475,0.016846,-0.025391,0.,0.,0.,-3.058594,-0.000977,0.039062,0.242188,115,214,66,87
68.651,14:29:49.651,-9.693359,-0.02832,0.018555,-0.010498,0.019043,-0.024414,0.,0.,0.,-3.061035,-0.000977,0.039062,0.242188,115,214,66,88
68.751,14:29:49.751,-9.693359,-0.02832,0.018555,-0.010498,0.019043,-0.024414,0.,0.,0.,-3.061035,-0.000977,0.039062,0.242188,115,214,66,88
68.851,14:29:49.851,-9.798828,0.,0.003906,-0.013672,0.016846,-0.030762,0.,0.,0.,-3.065674,-0.000977,0.039062,0.242188,115,214,66,88
68.951,14:29:49.951,-9.731445,-0.041992,0.075195,-0.011475,0.015869,-0.026367,0.,0.,0.,-3.067871,-0.000977,0.039062,0.242188,116,214,66,87
69.051,14:29:50.051,-9.760742,0.003906,0.013672,-0.014893,0.016846,-0.025391,0.,0.,0.,-3.069824,-0.000977,0.039062,0.242188,116,214,66,87
69.151,14:29:50.151,-9.703125,0.008789,0.013672,-0.012695,0.016846,-0.024414,0.,0.,0.,-3.072021,-0.000977,0.039062,0.242188,117,214,66,87
69.251,14:29:50.251,-9.736328,0.018555,0.,-0.013672,0.016846,-0.027588,0.,0.,0.,-3.074219,-0.000977,0.039062,0.242188,117,215,66,87
69.351,14:29:50.351,-9.693359,0.003906,0.037109,-0.011475,0.016846,-0.025391,0.,0.,0.,-3.076416,-0.001221,0.039062,0.242188,118,215,66,87
69.451,14:29:50.451,-9.693359,0.003906,0.037109,-0.011475,0.016846,-0.025391,0.,0.,0.,-3.076416,-0.001221,0.039062,0.242188,118,215,66,87
69.551,14:29:50.551,-9.625977,0.,0.066406,-0.013672,0.014893,-0.025391,0.,0.,0.,-3.078857,-0.001221,0.039062,0.242188,118,214,66,87
69.651,14:29:50.651,-9.625977,0.,0.066406,-0.013672,0.014893,-0.025391,0.,0.,0.,-3.078857,-0.001221,0.039062,0.242188,118,214,66,87
69.751,14:29:50.751,-9.789062,0.023438,0.033203,-0.015869,0.015869,-0.026367,0.,0.,0.,-3.080811,-0.001221,0.039307,0.242188,119,214,66,87
69.851,14:29:50.851,-9.789062,0.023438,0.033203,-0.015869,0.015869,-0.026367,0.,0.,0.,-3.080811,-0.001221,0.039307,0.242188,119,214,66,87
69.951,14:29:50.951,-9.779297,-0.018555,0.046875,-0.013672,0.018066,-0.027588,0.,0.,0.,-3.083008,-0.001221,0.039062,0.242188,118,214,66,87
70.051,14:29:51.051,-9.779297,-0.018555,0.046875,-0.013672,0.018066,-0.027588,0.,0.,0.,-3.083008,-0.001221,0.039062,0.242188,118,214,66,87
70.151,14:29:51.151,-9.688477,0.075195,0.02832,-0.013672,0.016846,-0.026367,0.,0.,0.,-3.084961,-0.001221,0.039062,0.242188,118,215,66,87
70.251,14:29:51.251,-9.688477,0.075195,0.02832,-0.013672,0.016846,-0.026367,0.,0.,0.,-3.084961,-0.001221,0.039062,0.242188,118,215,66,87
70.351,14:29:51.351,-9.789062,-0.056641,-0.003906,-0.013672,0.013672,-0.022217,0.,0.,0.,-3.087158,-0.001221,0.039062,0.242188,118,215,66,88
70.451,14:29:51.451,-9.678711,-0.051758,0.033203,-0.011475,0.016846,-0.027588,0.,0.,0.,-3.089111,-0.001221,0.039062,0.242188,118,215,66,88
70.551,14:29:51.551,-9.870117,-0.056641,0.066406,-0.012695,0.018066,-0.026367,0.,0.,0.,-3.091309,-0.001221,0.039062,0.242188,118,215,66,88
70.651,14:29:51.651,-9.870117,-0.056641,0.066406,-0.012695,0.018066,-0.026367,0.,0.,0.,-3.091309,-0.001221,0.039062,0.242188,118,215,66,88
70.751,14:29:51.751,-9.655273,0.02832,0.033203,-0.012695,0.013672,-0.026367,0.,0.,0.,-3.093262,-0.001221,0.039062,0.242188,118,215,66,88
70.851,14:29:51.851,-9.655273,0.02832,0.033203,-0.012695,0.013672,-0.026367,0.,0.,0.,-3.093262,-0.001221,0.039062,0.242188,118,215,66,88
70.951,14:29:51.951,-9.655273,0.018555,0.080078,-0.011475,0.016846,-0.023193,0.,0.,0.,-3.095459,-0.001221,0.039062,0.242188,118,215,66,88
71.051,14:29:52.051,-9.655273,0.018555,0.080078,-0.011475,0.016846,-0.023193,0.,0.,0.,-3.095459,-0.001221,0.039062,0.242188,118,215,66,88
71.151,14:29:52.151,-9.818359,0.,0.008789,-0.012695,0.015869,-0.027588,0.,0.,0.,-3.101807,-0.001465,0.039307,0.242188,119,218,66,87
71.251,14:29:52.251,-9.818359,0.,0.008789,-0.012695,0.015869,-0.027588,0.,0.,0.,-3.101807,-0.001465,0.039307,0.242188,119,218,66,87
71.351,14:29:52.351,-9.678711,0.02832,0.,-0.013672,0.015869,-0.024414,0.,0.,0.,-3.10376,-0.001465,0.039307,0.242188,119,217,66,87
71.451,14:29:52.451,-9.678711,0.02832,0.,-0.013672,0.015869,-0.024414,0.,0.,0.,-3.10376,-0.001465,0.039307,0.242188,119,217,66,87
71.551,14:29:52.551,-9.736328,0.033203,0.066406,-0.013672,0.014893,-0.025391,0.,0.,0.,-3.105713,-0.001465,0.039307,0.242188,119,217,66,87
71.651,14:29:52.651,-9.736328,0.033203,0.066406,-0.013672,0.014893,-0.025391,0.,0.,0.,-3.105713,-0.001465,0.039307,0.242188,119,217,66,87
71.751,14:29:52.751,-9.760742,-0.008789,0.080078,-0.014893,0.015869,-0.025391,0.,0.,0.,-3.107666,-0.001465,0.039307,0.242188,119,217,66,87
71.851,14:29:52.851,-9.731445,-0.013672,0.023438,-0.013672,0.015869,-0.026367,0.,0.,0.,-3.109863,-0.001465,0.039307,0.242188,119,218,66,87
71.951,14:29:52.951,-9.741211,-0.104492,0.046875,-0.012695,0.015869,-0.026367,0.,0.,0.,-3.111816,-0.001465,0.039307,0.242188,119,218,66,88
72.051,14:29:53.051,-9.660156,-0.018555,0.051758,-0.010498,0.016846,-0.025391,0.,0.,0.,-3.11377,-0.001465,0.039307,0.242188,119,219,66,88
72.151,14:29:53.151,-9.741211,0.051758,0.061523,-0.013672,0.013672,-0.024414,0.,0.,0.,-3.115967,-0.001465,0.039307,0.242188,119,219,66,88
72.251,14:29:53.251,-9.779297,-0.046875,0.066406,-0.011475,0.016846,-0.025391,0.,0.,0.,-3.11792,-0.001709,0.039307,0.242188,119,220,66,88
72.351,14:29:53.351,-9.779297,-0.046875,0.066406,-0.011475,0.016846,-0.025391,0.,0.,0.,-3.11792,-0.001709,0.039307,0.242188,119,220,66,88
72.451,14:29:53.451,-9.755859,-0.02832,-0.037109,-0.012695,0.014893,-0.026367,0.,0.,0.,-3.119873,-0.001709,0.039307,0.242188,119,218,66,87
72.551,14:29:53.551,-9.755859,-0.02832,-0.037109,-0.012695,0.014893,-0.026367,0.,0.,0.,-3.119873,-0.001709,0.039307,0.242188,119,218,66,87
72.651,14:29:53.651,-9.698242,-0.033203,0.046875,-0.013672,0.014893,-0.026367,0.,0.,0.,-3.121826,-0.001709,0.039307,0.242188,120,218,66,87
72.751,14:29:53.751,-9.698242,-0.033203,0.046875,-0.013672,0.014893,-0.026367,0.,0.,0.,-3.121826,-0.001709,0.039307,0.242188,120,218,66,87
72.851,14:29:53.851,-9.78418,0.037109,0.033203,-0.012695,0.014893,-0.027588,0.,0.,0.,-3.123535,-0.001709,0.039307,0.242188,120,216,66,87
72.951,14:29:53.951,-9.78418,0.037109,0.033203,-0.012695,0.014893,-0.027588,0.,0.,0.,-3.123535,-0.001709,0.039307,0.242188,120,216,66,87
73.051,14:29:54.051,-9.803711,-0.018555,0.02832,-0.013672,0.02002,-0.027588,0.,0.,0.,-3.125488,-0.001709,0.039307,0.242188,120,216,66,87
73.151,14:29:54.151,-9.803711,-0.018555,0.02832,-0.013672,0.02002,-0.027588,0.,0.,0.,-3.125488,-0.001709,0.039307,0.242188,120,216,66,87
73.251,14:29:54.251,-9.78418,0.094727,0.013672,-0.010498,0.014893,-0.027588,0.,0.,0.,-3.131348,-0.001709,0.039307,0.242188,120,215,66,87
73.351,14:29:54.351,-9.741211,0.041992,0.018555,-0.012695,0.016846,-0.027588,0.,0.,0.,-3.133057,-0.001953,0.039307,0.242188,120,215,66,88
73.451,14:29:54.451,-9.731445,-0.046875,0.018555,-0.013672,0.012695,-0.025391,0.,0.,0.,-3.13501,-0.001953,0.039307,0.242188,120,215,66,88
73.551,14:29:54.551,-9.717773,-0.013672,0.051758,-0.016846,0.015869,-0.024414,0.,0.,0.,-3.136963,-0.001953,0.039307,0.242188,120,215,66,88
73.651,14:29:54.651,-9.717773,-0.013672,0.051758,-0.016846,0.015869,-0.024414,0.,0.,0.,-3.136963,-0.001953,0.039307,0.242188,120,215,66,88
73.751,14:29:54.751,-9.673828,0.033203,0.075195,-0.011475,0.016846,-0.028564,0.,0.,0.,3.140381,-0.001953,0.039307,0.242188,120,215,66,88
73.851,14:29:54.851,-9.673828,0.033203,0.075195,-0.011475,0.016846,-0.028564,0.,0.,0.,3.140381,-0.001953,0.039307,0.242188,120,215,66,88
73.951,14:29:54.951,-9.673828,0.033203,0.075195,-0.011475,0.016846,-0.028564,0.,0.,0.,3.140381,-0.001953,0.039307,0.242188,120,215,66,88
74.051,14:29:55.051,-9.818359,0.008789,0.037109,-0.015869,0.014893,-0.025391,0.,0.,0.,3.138672,-0.001953,0.039307,0.242188,119,215,66,88
74.151,14:29:55.151,-9.818359,0.008789,0.037109,-0.015869,0.014893,-0.025391,0.,0.,0.,3.138672,-0.001953,0.039307,0.242188,119,215,66,88
74.251,14:29:55.251,-9.712891,-0.008789,0.084961,-0.011475,0.016846,-0.028564,0.,0.,0.,3.136719,-0.001953,0.039307,0.242188,119,215,66,88
74.351,14:29:55.351,-9.712891,-0.008789,0.084961,-0.011475,0.016846,-0.028564,0.,0.,0.,3.136719,-0.001953,0.039307,0.242188,119,215,66,88
74.451,14:29:55.451,-9.72168,-0.037109,-0.023438,-0.011475,0.016846,-0.026367,0.,0.,0.,3.13501,-0.002197,0.039551,0.242188,119,215,66,88
74.551,14:29:55.551,-9.72168,-0.037109,-0.023438,-0.011475,0.016846,-0.026367,0.,0.,0.,3.13501,-0.002197,0.039551,0.242188,119,215,66,88
74.651,14:29:55.651,-9.72168,-0.037109,-0.023438,-0.011475,0.016846,-0.026367,0.,0.,0.,3.13501,-0.002197,0.039551,0.242188,119,215,66,88
74.751,14:29:55.751,-9.798828,-0.003906,-0.033203,-0.015869,0.013672,-0.028564,0.,0.,0.,3.131348,-0.002197,0.039551,0.242188,119,215,66,88
74.851,14:29:55.851,-9.798828,-0.003906,-0.033203,-0.015869,0.013672,-0.028564,0.,0.,0.,3.131348,-0.002197,0.039551,0.242188,119,215,66,88
74.951,14:29:55.951,-9.741211,0.037109,0.033203,-0.011475,0.02002,-0.028564,0.,0.,0.,3.129639,-0.002197,0.039551,0.242188,120,215,66,87
75.051,14:29:56.051,-9.741211,0.037109,0.033203,-0.011475,0.02002,-0.028564,0.,0.,0.,3.129639,-0.002197,0.039551,0.242188,120,215,66,87
75.151,14:29:56.151,-9.798828,-0.051758,0.041992,-0.014893,0.018066,-0.028564,0.,0.,0.,3.12793,-0.002197,0.039551,0.242188,120,215,66,87
75.251,14:29:56.251,-9.798828,-0.051758,0.041992,-0.014893,0.018066,-0.028564,0.,0.,0.,3.12793,-0.002197,0.039551,0.242188,120,215,66,87
75.351,14:29:56.351,-9.899414,0.02832,0.046875,-0.009521,0.013672,-0.026367,0.,0.,0.,3.126221,-0.002197,0.039551,0.242188,120,215,66,87
75.451,14:29:56.451,-9.899414,0.02832,0.046875,-0.009521,0.013672,-0.026367,0.,0.,0.,3.126221,-0.002197,0.039551,0.242188,120,215,66,87
75.551,14:29:56.551,-9.72168,-0.003906,0.013672,-0.014893,0.015869,-0.028564,0.,0.,0.,3.124268,-0.002197,0.039551,0.242188,120,215,66,88
75.651,14:29:56.651,-9.72168,-0.003906,0.013672,-0.014893,0.015869,-0.028564,0.,0.,0.,3.124268,-0.002197,0.039551,0.242188,120,215,66,88
75.751,14:29:56.751,-9.717773,0.061523,-0.018555,-0.009521,0.014893,-0.024414,0.,0.,0.,3.122559,-0.002197,0.039307,0.242188,120,215,66,88
75.851,14:29:56.851,-9.717773,0.061523,-0.018555,-0.009521,0.014893,-0.024414,0.,0.,0.,3.122559,-0.002197,0.039307,0.242188,120,215,66,88
75.951,14:29:56.951,-9.774414,-0.051758,0.018555,-0.010498,0.013672,-0.027588,0.,0.,0.,3.12085,-0.002197,0.039551,0.242188,119,215,66,88
76.051,14:29:57.051,-9.774414,-0.051758,0.018555,-0.010498,0.013672,-0.027588,0.,0.,0.,3.12085,-0.002197,0.039551,0.242188,119,215,66,88
76.151,14:29:57.151,-9.774414,0.023438,0.094727,-0.016846,0.015869,-0.026367,0.,0.,0.,3.119141,-0.002441,0.039551,0.242188,119,215,66,88
76.251,14:29:57.251,-9.793945,-0.033203,0.041992,-0.014893,0.015869,-0.024414,0.,0.,0.,3.117676,-0.002441,0.039551,0.242188,119,215,66,88
76.351,14:29:57.351,-9.741211,0.080078,0.037109,-0.012695,0.016846,-0.027588,0.,0.,0.,3.115967,-0.002441,0.039551,0.242188,119,215,66,88
76.451,14:29:57.451,-9.793945,-0.008789,0.041992,-0.012695,0.014893,-0.025391,0.,0.,0.,3.114258,-0.002441,0.039551,0.242188,119,215,66,88
76.551,14:29:57.551,-9.741211,0.013672,0.056641,-0.013672,0.013672,-0.025391,0.,0.,0.,3.112305,-0.002441,0.039551,0.242188,119,215,66,88
76.651,14:29:57.651,-9.717773,-0.018555,0.037109,-0.011475,0.015869,-0.025391,0.,0.,0.,3.11084,-0.002441,0.039551,0.242188,119,215,66,88
76.751,14:29:57.751,-9.72168,0.,0.089844,-0.011475,0.015869,-0.028564,0.,0.,0.,3.109131,-0.002441,0.039551,0.242188,119,215,66,87
76.851,14:29:57.851,-9.630859,-0.018555,0.061523,-0.012695,0.013672,-0.026367,0.,0.,0.,3.107422,-0.002441,0.039551,0.242188,119,215,66,87
76.951,14:29:57.951,-9.630859,-0.018555,0.061523,-0.012695,0.013672,-0.026367,0.,0.,0.,3.107422,-0.002441,0.039551,0.242188,119,215,66,87
77.051,14:29:58.051,-9.765625,0.,0.018555,-0.013672,0.016846,-0.025391,0.,0.,0.,3.105713,-0.002441,0.039551,0.242188,119,216,66,87
77.151,14:29:58.151,-9.765625,0.,0.018555,-0.013672,0.016846,-0.025391,0.,0.,0.,3.105713,-0.002441,0.039551,0.242188,119,216,66,87
77.251,14:29:58.251,-9.841797,-0.041992,0.008789,-0.012695,0.015869,-0.027588,0.,0.,0.,3.104248,-0.002686,0.039551,0.242188,119,216,66,88
77.351,14:29:58.351,-9.841797,-0.041992,0.008789,-0.012695,0.015869,-0.027588,0.,0.,0.,3.104248,-0.002686,0.039551,0.242188,119,216,66,88
77.451,14:29:58.451,-9.793945,0.008789,0.056641,-0.012695,0.013672,-0.026367,0.,0.,0.,3.102539,-0.002686,0.039551,0.242188,119,216,66,87
77.551,14:29:58.551,-9.836914,0.033203,0.070312,-0.011475,0.018066,-0.025391,0.,0.,0.,3.101074,-0.002686,0.039551,0.242188,119,216,66,87
77.651,14:29:58.651,-9.712891,-0.02832,0.008789,-0.014893,0.010498,-0.023193,0.,0.,0.,3.099365,-0.002686,0.039551,0.242188,119,216,66,87
77.751,14:29:58.751,-9.760742,0.046875,0.008789,-0.012695,0.012695,-0.027588,0.,0.,0.,3.097656,-0.002686,0.039551,0.242188,119,216,66,87
77.851,14:29:58.851,-9.736328,0.003906,0.046875,-0.014893,0.014893,-0.027588,0.,0.,0.,3.096191,-0.002686,0.039551,0.242188,119,216,66,87
77.951,14:29:58.951,-9.789062,-0.008789,0.033203,-0.011475,0.015869,-0.028564,0.,0.,0.,3.093262,-0.002686,0.039551,0.242188,119,215,66,87
78.051,14:29:59.051,-9.789062,-0.008789,0.033203,-0.011475,0.015869,-0.028564,0.,0.,0.,3.093262,-0.002686,0.039551,0.242188,119,215,66,87
78.151,14:29:59.151,-9.549805,-0.051758,0.056641,-0.012695,0.016846,-0.023193,0.,0.,0.,3.091553,-0.002686,0.039795,0.242188,119,215,66,88
78.251,14:29:59.251,-9.549805,-0.051758,0.056641,-0.012695,0.016846,-0.023193,0.,0.,0.,3.091553,-0.002686,0.039795,0.242188,119,215,66,88
78.351,14:29:59.351,-9.750977,-0.02832,0.080078,-0.011475,0.011475,-0.025391,0.,0.,0.,3.090088,-0.002686,0.039551,0.242188,119,215,66,88
78.451,14:29:59.451,-9.750977,-0.02832,0.080078,-0.011475,0.011475,-0.025391,0.,0.,0.,3.090088,-0.002686,0.039551,0.242188,119,215,66,88
78.551,14:29:59.551,-9.741211,-0.033203,-0.003906,-0.013672,0.014893,-0.023193,0.,0.,0.,3.088623,-0.002686,0.039551,0.242188,119,215,66,87
78.651,14:29:59.651,-9.741211,-0.033203,-0.003906,-0.013672,0.014893,-0.023193,0.,0.,0.,3.088623,-0.002686,0.039551,0.242188,119,215,66,87
78.751,14:29:59.751,-9.741211,-0.061523,0.013672,-0.013672,0.015869,-0.024414,0.,0.,0.,3.086914,-0.002686,0.039551,0.242188,119,216,66,87
78.851,14:29:59.851,-9.793945,-0.018555,-0.003906,-0.014893,0.014893,-0.026367,0.,0.,0.,3.085449,-0.002686,0.039551,0.242188,119,216,66,87
78.951,14:29:59.951,-9.688477,-0.003906,0.033203,-0.009521,0.018066,-0.023193,0.,0.,0.,3.081055,-0.002686,0.039795,0.242188,119,216,66,87
79.051,14:30:0.051,-9.688477,-0.003906,0.033203,-0.009521,0.018066,-0.023193,0.,0.,0.,3.081055,-0.002686,0.039795,0.242188,119,216,66,87
79.151,14:30:0.151,-9.630859,0.033203,0.094727,-0.012695,0.018066,-0.025391,0.,0.,0.,3.07959,-0.00293,0.039795,0.242188,119,215,66,87
79.251,14:30:0.251,-9.755859,-0.037109,0.075195,-0.011475,0.018066,-0.025391,0.,0.,0.,3.078125,-0.00293,0.039795,0.242188,119,215,66,87
79.351,14:30:0.351,-9.808594,0.041992,0.084961,-0.012695,0.012695,-0.026367,0.,0.,0.,3.07666,-0.00293,0.039795,0.242188,119,215,66,87
79.451,14:30:0.451,-9.808594,0.041992,0.084961,-0.012695,0.012695,-0.026367,0.,0.,0.,3.07666,-0.00293,0.039795,0.242188,119,215,66,87
79.551,14:30:0.551,-9.793945,-0.013672,0.051758,-0.013672,0.02002,-0.027588,0.,0.,0.,3.075195,-0.00293,0.039795,0.242188,119,215,66,87
79.651,14:30:0.651,-9.793945,-0.013672,0.051758,-0.013672,0.02002,-0.027588,0.,0.,0.,3.075195,-0.00293,0.039795,0.242188,119,215,66,87
79.751,14:30:0.751,-9.630859,-0.037109,0.013672,-0.014893,0.019043,-0.024414,0.,0.,0.,3.07373,-0.00293,0.039795,0.242188,119,215,66,87
79.851,14:30:0.851,-9.630859,-0.037109,0.013672,-0.014893,0.019043,-0.024414,0.,0.,0.,3.07373,-0.00293,0.039795,0.242188,119,215,66,87
79.951,14:30:0.951,-9.630859,-0.02832,0.080078,-0.011475,0.018066,-0.024414,0.,0.,0.,3.072266,-0.00293,0.039795,0.242188,119,215,66,87
80.051,14:30:1.051,-9.798828,-0.02832,0.,-0.013672,0.016846,-0.024414,0.,0.,0.,3.071045,-0.00293,0.039795,0.242188,119,215,66,87
80.151,14:30:1.151,-9.746094,-0.018555,0.033203,-0.014893,0.015869,-0.027588,0.,0.,0.,3.06665,-0.00293,0.040039,0.242188,120,216,66,87
80.251,14:30:1.251,-9.770508,0.056641,0.099609,-0.011475,0.013672,-0.023193,0.,0.,0.,3.065186,-0.00293,0.040039,0.242188,120,215,66,87
80.351,14:30:1.351,-9.770508,0.056641,0.099609,-0.011475,0.013672,-0.023193,0.,0.,0.,3.065186,-0.00293,0.040039,0.242188,120,215,66,87
80.451,14:30:1.451,-9.765625,0.003906,0.033203,-0.010498,0.015869,-0.026367,0.,0.,0.,3.063965,-0.00293,0.040039,0.242188,120,215,66,87
80.551,14:30:1.551,-9.765625,0.003906,0.033203,-0.010498,0.015869,-0.026367,0.,0.,0.,3.063965,-0.00293,0.040039,0.242188,120,215,66,87
80.651,14:30:1.651,-9.655273,-0.075195,0.023438,-0.012695,0.015869,-0.026367,0.,0.,0.,3.062744,-0.00293,0.040039,0.242188,120,215,66,87
80.751,14:30:1.751,-9.655273,-0.075195,0.023438,-0.012695,0.015869,-0.026367,0.,0.,0.,3.062744,-0.00293,0.040039,0.242188,120,215,66,87
80.851,14:30:1.851,-9.726562,-0.018555,0.051758,-0.013672,0.012695,-0.029785,0.,0.,0.,3.061279,-0.00293,0.040039,0.242188,120,215,66,87
80.951,14:30:1.951,-9.726562,-0.018555,0.051758,-0.013672,0.012695,-0.029785,0.,0.,0.,3.061279,-0.00293,0.040039,0.242188,120,215,66,87
81.051,14:30:2.051,-9.765625,0.046875,0.051758,-0.013672,0.010498,-0.026367,0.,0.,0.,3.059814,-0.00293,0.040039,0.242188,120,215,66,87
81.151,14:30:2.151,-9.765625,0.046875,0.051758,-0.013672,0.010498,-0.026367,0.,0.,0.,3.059814,-0.00293,0.040039,0.242188,120,215,66,87
81.251,14:30:2.251,-9.765625,0.046875,0.051758,-0.013672,0.010498,-0.026367,0.,0.,0.,3.059814,-0.00293,0.040039,0.242188,120,215,66,87
81.351,14:30:2.351,-9.765625,0.046875,0.051758,-0.013672,0.010498,-0.026367,0.,0.,0.,3.059814,-0.00293,0.040039,0.242188,120,215,66,87
81.451,14:30:2.451,-9.750977,0.,0.033203,-0.012695,0.015869,-0.024414,0.,0.,0.,3.057373,-0.00293,0.040039,0.242188,120,215,66,87
81.551,14:30:2.551,-9.750977,0.,0.033203,-0.012695,0.015869,-0.024414,0.,0.,0.,3.057373,-0.00293,0.040039,0.242188,120,215,66,87
81.651,14:30:2.651,-9.765625,0.013672,0.018555,-0.012695,0.014893,-0.023193,0.,0.,0.,3.055908,-0.00293,0.040039,0.242188,119,215,66,87
81.751,14:30:2.751,-9.779297,-0.037109,0.046875,-0.013672,0.015869,-0.027588,0.,0.,0.,3.054688,-0.00293,0.040283,0.242188,119,215,66,87
81.851,14:30:2.851,-9.617188,0.003906,0.003906,-0.012695,0.016846,-0.028564,0.,0.,0.,3.053223,-0.003174,0.040039,0.242188,119,215,66,87
81.951,14:30:2.951,-9.717773,-0.041992,0.023438,-0.014893,0.015869,-0.026367,0.,0.,0.,3.052002,-0.003174,0.040283,0.242188,119,215,66,87
82.051,14:30:3.051,-9.813477,0.066406,-0.003906,-0.012695,0.016846,-0.024414,0.,0.,0.,3.050537,-0.003174,0.040283,0.242188,119,215,66,87
82.151,14:30:3.151,-9.78418,-0.061523,-0.013672,-0.011475,0.015869,-0.028564,0.,0.,0.,3.049316,-0.003174,0.040039,0.242188,120,215,66,87
82.251,14:30:3.251,-9.78418,-0.061523,-0.013672,-0.011475,0.015869,-0.028564,0.,0.,0.,3.049316,-0.003174,0.040039,0.242188,120,215,66,87
82.351,14:30:3.351,-9.750977,0.056641,0.104492,-0.013672,0.016846,-0.026367,0.,0.,0.,3.048096,-0.003174,0.040039,0.242188,119,215,66,87
82.451,14:30:3.451,-9.750977,0.056641,0.104492,-0.013672,0.016846,-0.026367,0.,0.,0.,3.048096,-0.003174,0.040039,0.242188,119,215,66,87
82.551,14:30:3.551,-9.683594,-0.008789,0.061523,-0.012695,0.012695,-0.027588,0.,0.,0.,3.046875,-0.003174,0.040283,0.242188,119,215,66,87
82.651,14:30:3.651,-9.755859,0.008789,0.104492,-0.012695,0.015869,-0.025391,0.,0.,0.,3.045654,-0.003174,0.040283,0.242188,119,215,66,87
82.751,14:30:3.751,-9.774414,0.037109,0.089844,-0.013672,0.014893,-0.027588,0.,0.,0.,3.044189,-0.003174,0.040283,0.242188,119,215,66,87
82.851,14:30:3.851,-9.688477,-0.041992,0.056641,-0.013672,0.014893,-0.026367,0.,0.,0.,3.042725,-0.003174,0.040283,0.242188,119,215,66,87
82.951,14:30:3.951,-9.688477,-0.041992,0.056641,-0.013672,0.014893,-0.026367,0.,0.,0.,3.042725,-0.003174,0.040283,0.242188,119,215,66,87
83.051,14:30:4.051,-9.818359,-0.018555,0.066406,-0.012695,0.019043,-0.025391,0.,0.,0.,3.041504,-0.003174,0.040283,0.242188,119,215,66,87
83.151,14:30:4.151,-9.818359,-0.018555,0.066406,-0.012695,0.019043,-0.025391,0.,0.,0.,3.041504,-0.003174,0.040283,0.242188,119,215,66,87
83.251,14:30:4.251,-9.746094,-0.023438,0.02832,-0.013672,0.015869,-0.027588,0.,0.,0.,3.040527,-0.003174,0.040283,0.242188,119,216,66,87
83.351,14:30:4.351,-9.746094,-0.023438,0.02832,-0.013672,0.015869,-0.027588,0.,0.,0.,3.040527,-0.003174,0.040283,0.242188,119,216,66,87
83.451,14:30:4.451,-9.803711,-0.041992,0.023438,-0.010498,0.015869,-0.024414,0.,0.,0.,3.039307,-0.003174,0.040283,0.242188,119,216,66,87
83.551,14:30:4.551,-9.803711,-0.041992,0.023438,-0.010498,0.015869,-0.024414,0.,0.,0.,3.039307,-0.003174,0.040283,0.242188,119,216,66,87
83.651,14:30:4.651,-9.688477,-0.008789,-0.018555,-0.013672,0.014893,-0.025391,0.,0.,0.,3.038086,-0.003174,0.040283,0.242188,119,216,66,87
83.751,14:30:4.751,-9.688477,-0.008789,-0.018555,-0.013672,0.014893,-0.025391,0.,0.,0.,3.038086,-0.003174,0.040283,0.242188,119,216,66,87
83.851,14:30:4.851,-9.789062,0.023438,0.084961,-0.011475,0.018066,-0.027588,0.,0.,0.,3.037109,-0.003174,0.040283,0.242188,119,216,66,87
83.951,14:30:4.951,-9.789062,0.023438,0.084961,-0.011475,0.018066,-0.027588,0.,0.,0.,3.037109,-0.003174,0.040283,0.242188,119,216,66,87
84.051,14:30:5.051,-9.717773,0.003906,0.013672,-0.014893,0.016846,-0.025391,0.,0.,0.,3.035889,-0.003174,0.040283,0.242188,119,216,66,87
84.151,14:30:5.151,-9.717773,0.003906,0.013672,-0.014893,0.016846,-0.025391,0.,0.,0.,3.035889,-0.003174,0.040283,0.242188,119,216,66,87
84.251,14:30:5.251,-9.798828,0.033203,0.018555,-0.011475,0.016846,-0.024414,0.,0.,0.,3.034424,-0.003174,0.040283,0.242188,119,216,66,87
84.351,14:30:5.351,-9.798828,0.033203,0.018555,-0.011475,0.016846,-0.024414,0.,0.,0.,3.034424,-0.003174,0.040283,0.242188,119,216,66,87
84.451,14:30:5.451,-9.770508,0.,0.075195,-0.014893,0.014893,-0.026367,0.,0.,0.,3.033447,-0.003174,0.040283,0.242188,119,216,66,87
84.551,14:30:5.551,-9.765625,-0.008789,0.056641,-0.014893,0.016846,-0.023193,0.,0.,0.,3.032227,-0.003418,0.040283,0.242188,119,216,66,87
84.651,14:30:5.651,-9.688477,-0.041992,-0.02832,-0.012695,0.014893,-0.026367,0.,0.,0.,3.031006,-0.003174,0.040527,0.242188,119,216,66,88
84.751,14:30:5.751,-9.655273,0.033203,0.,-0.013672,0.018066,-0.023193,0.,0.,0.,3.030029,-0.003418,0.040283,0.242188,119,216,66,88
84.851,14:30:5.851,-9.698242,0.003906,0.061523,-0.011475,0.014893,-0.027588,0.,0.,0.,3.028809,-0.003418,0.040283,0.242188,119,216,66,88
84.951,14:30:5.951,-9.793945,0.033203,0.061523,-0.015869,0.015869,-0.027588,0.,0.,0.,3.025146,-0.003418,0.040527,0.242188,119,216,66,88
85.051,14:30:6.051,-9.793945,0.033203,0.061523,-0.015869,0.015869,-0.027588,0.,0.,0.,3.025146,-0.003418,0.040527,0.242188,119,216,66,88
85.151,14:30:6.151,-9.736328,-0.008789,0.008789,-0.011475,0.014893,-0.027588,0.,0.,0.,3.02417,-0.003418,0.040283,0.242188,119,216,66,87
85.251,14:30:6.251,-9.736328,-0.008789,0.008789,-0.011475,0.014893,-0.027588,0.,0.,0.,3.02417,-0.003418,0.040283,0.242188,119,216,66,87
85.351,14:30:6.351,-9.703125,-0.033203,0.099609,-0.012695,0.014893,-0.025391,0.,0.,0.,3.023193,-0.003418,0.040283,0.242188,120,216,66,87
85.451,14:30:6.451,-9.703125,-0.033203,0.099609,-0.012695,0.014893,-0.025391,0.,0.,0.,3.023193,-0.003418,0.040283,0.242188,120,216,66,87
85.551,14:30:6.551,-9.655273,-0.056641,0.089844,-0.011475,0.018066,-0.027588,0.,0.,0.,3.022217,-0.003418,0.040283,0.242188,120,216,66,87
85.651,14:30:6.651,-9.760742,0.056641,0.046875,-0.013672,0.013672,-0.026367,0.,0.,0.,3.020996,-0.003418,0.040283,0.242188,120,217,66,87
85.751,14:30:6.751,-9.693359,-0.018555,0.099609,-0.013672,0.013672,-0.026367,0.,0.,0.,3.019775,-0.003418,0.040283,0.242188,120,217,66,87
85.851,14:30:6.851,-9.755859,-0.033203,0.008789,-0.012695,0.013672,-0.027588,0.,0.,0.,3.018555,-0.003418,0.040283,0.242188,120,218,66,87
85.951,14:30:6.951,-9.678711,-0.061523,0.018555,-0.012695,0.011475,-0.026367,0.,0.,0.,3.017578,-0.003418,0.040283,0.242188,120,220,66,87
86.051,14:30:7.051,-9.774414,0.,-0.008789,-0.013672,0.015869,-0.025391,0.,0.,0.,3.016602,-0.003418,0.040283,0.242188,119,222,66,87
86.151,14:30:7.151,-9.774414,0.,-0.008789,-0.013672,0.015869,-0.025391,0.,0.,0.,3.016602,-0.003418,0.040283,0.242188,119,222,66,87
86.251,14:30:7.251,-9.746094,0.003906,0.104492,-0.012695,0.016846,-0.023193,0.,0.,0.,3.015625,-0.003418,0.040283,0.242188,119,222,66,87
86.351,14:30:7.351,-9.746094,0.003906,0.104492,-0.012695,0.016846,-0.023193,0.,0.,0.,3.015625,-0.003418,0.040283,0.242188,119,222,66,87
86.451,14:30:7.451,-9.822266,0.,0.013672,-0.012695,0.018066,-0.025391,0.,0.,0.,3.014404,-0.003418,0.040283,0.242188,119,222,66,87
86.551,14:30:7.551,-9.822266,0.,0.013672,-0.012695,0.018066,-0.025391,0.,0.,0.,3.014404,-0.003418,0.040283,0.242188,119,222,66,87
86.651,14:30:7.651,-9.793945,0.008789,0.099609,-0.012695,0.015869,-0.023193,0.,0.,0.,3.013428,-0.003418,0.040283,0.242188,119,220,66,87
86.751,14:30:7.751,-9.793945,0.008789,0.099609,-0.012695,0.015869,-0.023193,0.,0.,0.,3.013428,-0.003418,0.040283,0.242188,119,220,66,87
86.851,14:30:7.851,-9.736328,-0.003906,-0.061523,-0.011475,0.015869,-0.024414,0.,0.,0.,3.012451,-0.003418,0.040283,0.242188,119,219,66,87
86.951,14:30:7.951,-9.736328,-0.003906,-0.061523,-0.011475,0.015869,-0.024414,0.,0.,0.,3.012451,-0.003418,0.040283,0.242188,119,219,66,87
87.051,14:30:8.051,-9.717773,-0.013672,0.12793,-0.012695,0.013672,-0.026367,0.,0.,0.,3.009521,-0.003418,0.040283,0.242188,119,220,66,88
87.151,14:30:8.151,-9.717773,-0.013672,0.12793,-0.012695,0.013672,-0.026367,0.,0.,0.,3.009521,-0.003418,0.040283,0.242188,119,220,66,88
87.251,14:30:8.251,-9.789062,0.018555,0.02832,-0.011475,0.014893,-0.024414,0.,0.,0.,3.008301,-0.003418,0.040283,0.242188,119,220,66,88
87.351,14:30:8.351,-9.789062,0.018555,0.02832,-0.011475,0.014893,-0.024414,0.,0.,0.,3.008301,-0.003418,0.040283,0.242188,119,220,66,88
87.451,14:30:8.451,-9.765625,-0.023438,0.104492,-0.010498,0.016846,-0.028564,0.,0.,0.,3.007324,-0.003418,0.040283,0.242188,119,220,66,88
87.551,14:30:8.551,-9.765625,-0.023438,0.104492,-0.010498,0.016846,-0.028564,0.,0.,0.,3.007324,-0.003418,0.040283,0.242188,119,220,66,88
87.651,14:30:8.651,-9.808594,0.037109,0.003906,-0.014893,0.018066,-0.028564,0.,0.,0.,3.006348,-0.003418,0.040283,0.242188,119,221,66,88
87.751,14:30:8.751,-9.822266,-0.008789,0.046875,-0.010498,0.013672,-0.026367,0.,0.,0.,3.005371,-0.003418,0.040283,0.242188,119,221,66,88
87.851,14:30:8.851,-9.650391,0.041992,0.041992,-0.014893,0.018066,-0.027588,0.,0.,0.,3.004395,-0.003418,0.040283,0.242188,119,222,66,88
87.951,14:30:8.951,-9.650391,0.041992,0.041992,-0.014893,0.018066,-0.027588,0.,0.,0.,3.004395,-0.003418,0.040283,0.242188,119,222,66,88
88.051,14:30:9.051,-9.673828,-0.046875,0.061523,-0.013672,0.014893,-0.026367,0.,0.,0.,3.003418,-0.003418,0.040527,0.242188,119,223,66,87
88.151,14:30:9.151,-9.673828,-0.046875,0.061523,-0.013672,0.014893,-0.026367,0.,0.,0.,3.003418,-0.003418,0.040527,0.242188,119,223,66,87
88.251,14:30:9.251,-9.660156,0.041992,0.023438,-0.010498,0.016846,-0.026367,0.,0.,0.,3.002441,-0.003418,0.040283,0.242188,119,224,66,87
88.351,14:30:9.351,-9.660156,0.041992,0.023438,-0.010498,0.016846,-0.026367,0.,0.,0.,3.002441,-0.003418,0.040283,0.242188,119,224,66,87
88.451,14:30:9.451,-9.660156,0.041992,0.023438,-0.010498,0.016846,-0.026367,0.,0.,0.,3.002441,-0.003418,0.040283,0.242188,119,224,66,87
88.551,14:30:9.551,-9.660156,0.041992,0.023438,-0.010498,0.016846,-0.026367,0.,0.,0.,3.002441,-0.003418,0.040283,0.242188,119,224,66,87
88.651,14:30:9.651,-9.755859,0.003906,0.046875,-0.009521,0.015869,-0.026367,0.,0.,0.,3.000488,-0.003418,0.040283,0.242188,119,225,66,88
88.751,14:30:9.751,-9.755859,0.003906,0.046875,-0.009521,0.015869,-0.026367,0.,0.,0.,3.000488,-0.003418,0.040283,0.242188,119,225,66,88
88.851,14:30:9.851,-9.708008,0.,0.108398,-0.015869,0.016846,-0.026367,0.,0.,0.,2.999512,-0.003418,0.040283,0.242188,119,225,66,87
88.951,14:30:9.951,-9.746094,0.084961,0.099609,-0.013672,0.018066,-0.028564,0.,0.,0.,2.998779,-0.003418,0.040283,0.242188,119,226,66,87
