Time,UTC,FINKEN_SENSOR_MODEL:acceleration_z,FINKEN_SENSOR_MODEL:acceleration_y,FINKEN_SENSOR_MODEL:acceleration_x,FINKEN_SENSOR_MODEL:velocity_yaw,FINKEN_SENSOR_MODEL:velocity_roll,FINKEN_SENSOR_MODEL:velocity_pitch,FINKEN_SENSOR_MODEL:velocity_z,FINKEN_SENSOR_MODEL:velocity_y,FINKEN_SENSOR_MODEL:velocity_x,FINKEN_SENSOR_MODEL:pos_yaw,FINKEN_SENSOR_MODEL:pos_roll,FINKEN_SENSOR_MODEL:pos_pitch,FINKEN_SENSOR_MODEL:pos_z,FINKEN_SENSOR_MODEL:distance_d_back,FINKEN_SENSOR_MODEL:distance_d_left,FINKEN_SENSOR_MODEL:distance_d_rigth,FINKEN_SENSOR_MODEL:distance_d_front
1.609,15:14:9.609,-9.741211,-0.275391,-0.161133,0.032959,-0.054199,-0.102051,0.,0.,0.,3.095703,-0.000977,-0.031982,0.242188,54,32,70,212
1.709,15:14:9.709,-9.832031,0.,-0.146484,-0.018066,0.000977,-0.024414,0.,0.,0.,3.098145,-0.008301,-0.035156,0.242188,92,30,70,212
1.809,15:14:9.809,-9.832031,0.,-0.146484,-0.018066,0.000977,-0.024414,0.,0.,0.,3.098145,-0.008301,-0.035156,0.242188,92,30,70,212
1.909,15:14:9.909,-9.832031,0.,-0.146484,-0.018066,0.000977,-0.024414,0.,0.,0.,3.098145,-0.008301,-0.035156,0.242188,92,30,70,212
2.009,15:14:10.009,-9.841797,-0.204102,-0.222656,-0.060547,0.07959,0.014893,0.,0.,0.,3.094238,-0.010254,-0.027344,0.242188,104,29,70,212
2.109,15:14:10.109,-9.841797,-0.204102,-0.222656,-0.060547,0.07959,0.014893,0.,0.,0.,3.094238,-0.010254,-0.027344,0.242188,104,29,70,212
2.209,15:14:10.209,-9.731445,0.15625,-0.246094,-0.070068,0.07959,0.049805,0.,0.,0.,3.085449,-0.007324,-0.024414,0.242188,144,33,69,24
2.309,15:14:10.309,-9.813477,-0.351562,0.174805,0.111572,-0.003174,-0.027588,0.,0.,0.,3.083984,-0.003418,-0.022705,0.242188,30,33,69,24
2.409,15:14:10.409,-10.133789,0.456055,0.668945,-0.09668,-0.126465,0.153076,0.,0.,0.,3.086182,-0.006836,-0.019043,0.242188,30,34,69,24
2.509,15:14:10.509,-9.789062,-0.123047,-0.146484,0.070068,-0.071289,-0.13501,0.,0.,0.,3.090576,-0.005615,-0.025879,0.242188,30,34,70,24
2.609,15:14:10.609,-10.038086,0.517578,-0.033203,-0.062744,-0.122314,-0.182861,0.,0.,0.,3.094971,-0.023682,-0.033691,0.242188,32,33,70,24
2.709,15:14:10.709,-9.765625,0.499023,-0.768555,-0.093506,-0.065918,0.056396,0.,0.,0.,3.087158,-0.017822,-0.041992,0.242188,36,30,70,24
2.809,15:14:10.809,-10.085938,-0.537109,1.358398,0.034912,-0.277588,-0.19043,0.,0.,0.,3.086182,-0.011719,-0.048096,0.242188,99,30,70,24
2.909,15:14:10.909,-9.28125,0.289062,-1.091797,-0.186035,-0.426514,-0.308594,0.,0.,0.,3.080322,-0.049805,-0.091797,0.238281,194,33,73,24
3.009,15:14:11.009,-9.28125,0.289062,-1.091797,-0.186035,-0.426514,-0.308594,0.,0.,0.,3.080322,-0.049805,-0.091797,0.238281,194,33,73,24
3.109,15:14:11.109,-10.339844,0.046875,-1.234375,-0.428711,-0.379883,0.166016,0.,0.,0.,3.084229,-0.061035,-0.178711,0.230469,35,32,79,24
3.209,15:14:11.209,-9.673828,2.072266,-3.310547,0.160645,0.158447,-0.13501,0.,0.,0.,3.083252,-0.083008,-0.21167,0.226562,33,32,74,24
3.309,15:14:11.309,-5.935547,4.402344,-6.59668,0.662842,0.734131,0.88208,0.,0.,0.,3.094971,-0.061768,-0.169678,0.222656,32,32,72,24
3.409,15:14:11.409,-5.935547,4.402344,-6.59668,0.662842,0.734131,0.88208,0.,0.,0.,3.094971,-0.061768,-0.169678,0.222656,32,32,72,24
3.509,15:14:11.509,-9.617188,0.318359,0.232422,-0.351074,-0.494629,-0.235107,0.,0.,0.,-3.107178,-0.067871,-0.044678,0.242188,32,33,68,27
3.609,15:14:11.609,-9.617188,0.318359,0.232422,-0.351074,-0.494629,-0.235107,0.,0.,0.,-3.107178,-0.067871,-0.044678,0.242188,32,33,68,27
3.709,15:14:11.709,-9.884766,2.248047,-0.037109,-0.471436,-0.258545,0.260498,0.,0.,0.,3.133789,-0.07373,-0.09375,0.242188,32,33,67,24
3.809,15:14:11.809,-9.884766,2.248047,-0.037109,-0.471436,-0.258545,0.260498,0.,0.,0.,3.133789,-0.07373,-0.09375,0.242188,32,33,67,24
3.909,15:14:11.909,-9.655273,1.848633,1.206055,-0.143555,0.312744,0.444824,0.,0.,0.,-3.124023,-0.068359,-0.033936,0.242188,32,28,66,23
4.009,15:14:12.009,-9.760742,0.146484,-0.023438,-0.181885,-0.214844,-0.060547,0.,0.,0.,-3.137451,-0.04248,-0.0354,0.242188,32,21,66,23
4.109,15:14:12.109,-9.760742,0.146484,-0.023438,-0.181885,-0.214844,-0.060547,0.,0.,0.,-3.137451,-0.04248,-0.0354,0.242188,32,21,66,23
4.209,15:14:12.209,-8.8125,1.49707,-0.089844,-0.006348,0.104248,0.279785,0.,0.,0.,3.134277,-0.033936,-0.045166,0.246094,30,24,66,23
4.309,15:14:12.309,-9.46875,0.013672,0.227539,0.132812,0.011475,0.034912,0.,0.,0.,3.133789,-0.019775,-0.041992,0.242188,29,29,66,23
4.409,15:14:12.409,-9.683594,-0.023438,-0.204102,-0.037109,0.213867,-0.006348,0.,0.,0.,3.138672,-0.020508,-0.033936,0.242188,27,28,68,23
4.509,15:14:12.509,-9.746094,0.436523,-0.260742,0.047852,0.056396,-0.163818,0.,0.,0.,3.140869,-0.024414,-0.025391,0.242188,28,27,67,23
4.609,15:14:12.609,-9.985352,-0.018555,0.801758,-0.153076,-0.159424,-0.124512,0.,0.,0.,3.135986,-0.033936,-0.024414,0.242188,31,27,67,23
4.709,15:14:12.709,-9.841797,0.579102,0.550781,0.081787,0.127686,-0.144531,0.,0.,0.,3.140869,-0.043457,-0.015381,0.242188,32,29,67,23
4.809,15:14:12.809,-9.669922,0.72168,-0.431641,-0.009521,0.008301,-0.05835,0.,0.,0.,3.129639,-0.039062,-0.024658,0.246094,32,29,67,23
4.909,15:14:12.909,-9.574219,0.398438,-0.768555,-0.218018,-0.060547,0.047852,0.,0.,0.,3.119873,-0.036865,-0.03833,0.246094,33,30,67,23
5.009,15:14:13.009,-9.31543,-0.204102,0.588867,-0.011475,0.36377,0.162598,0.,0.,0.,3.129395,-0.045898,-0.029785,0.242188,33,30,67,23
5.109,15:14:13.109,-9.310547,-0.179688,0.066406,0.122314,-0.29248,-0.243652,0.,0.,0.,3.128174,-0.044434,-0.037842,0.246094,32,30,67,23
5.209,15:14:13.209,-9.511719,-0.089844,-0.493164,0.055176,0.094482,-0.084961,0.,0.,0.,3.115234,-0.025879,-0.047119,0.242188,32,31,67,23
5.309,15:14:13.309,-9.425781,0.008789,-0.341797,-0.065918,-0.052002,-0.076416,0.,0.,0.,3.11084,-0.023926,-0.04834,0.242188,32,33,67,23
5.409,15:14:13.409,-9.630859,0.237305,-0.702148,-0.182861,0.015869,0.094482,0.,0.,0.,3.094482,-0.019043,-0.052246,0.242188,32,33,68,23
5.509,15:14:13.509,-9.980469,0.213867,-0.854492,-0.047852,0.001953,0.126465,0.,0.,0.,3.094482,-0.008301,-0.046875,0.242188,33,34,68,23
5.609,15:14:13.609,-9.62207,-0.303711,-0.293945,0.134033,-0.166016,-0.230713,0.,0.,0.,3.10083,-0.00708,-0.061035,0.242188,36,21,68,23
5.709,15:14:13.709,-9.62207,-0.303711,-0.293945,0.134033,-0.166016,-0.230713,0.,0.,0.,3.10083,-0.00708,-0.061035,0.242188,36,21,68,23
5.809,15:14:13.809,-9.310547,0.132812,-0.303711,0.316895,0.21582,-0.066895,0.,0.,0.,3.108154,-0.008545,-0.066162,0.242188,36,28,69,23
5.909,15:14:13.909,-9.866211,0.822266,-1.287109,0.289307,-0.262695,-0.30542,0.,0.,0.,3.118408,-0.021729,-0.074951,0.242188,36,34,69,23
6.009,15:14:14.009,-9.793945,0.755859,-1.581055,-0.043457,-0.290527,-0.184082,0.,0.,0.,3.128418,-0.058838,-0.109131,0.242188,37,26,69,23
6.109,15:14:14.109,-10.105469,0.456055,-0.375,0.341553,0.298828,0.067871,0.,0.,0.,-3.12915,-0.072266,-0.106445,0.238281,37,22,68,23
6.209,15:14:14.209,-9.717773,0.113281,-0.849609,0.203125,-0.255371,-0.135986,0.,0.,0.,-3.111572,-0.066406,-0.099854,0.238281,34,26,68,23
6.309,15:14:14.309,-9.041992,0.293945,-1.111328,0.099854,0.018066,0.095703,0.,0.,0.,-3.095947,-0.070068,-0.113037,0.242188,33,30,66,23
6.409,15:14:14.409,-9.708008,0.560547,-0.821289,0.00415,0.208496,0.213867,0.,0.,0.,-3.098389,-0.044922,-0.097656,0.242188,33,30,66,25
6.509,15:14:14.509,-8.563477,0.166016,0.664062,0.17749,0.095703,-0.213867,0.,0.,0.,-3.092041,-0.020752,-0.069824,0.242188,33,30,66,28
6.609,15:14:14.609,-9.416016,-0.18457,-0.517578,-0.120117,-0.044678,0.137207,0.,0.,0.,-3.102783,-0.019531,-0.078369,0.246094,33,28,66,28
6.709,15:14:14.709,-9.957031,-0.227539,-1.201172,0.155273,-0.21582,-0.303223,0.,0.,0.,-3.109619,-0.013672,-0.086426,0.246094,35,27,65,28
6.809,15:14:14.809,-9.454102,1.331055,-1.31543,-0.024414,-0.212646,-0.462891,0.,0.,0.,-3.105957,-0.037842,-0.109131,0.242188,38,28,65,28
6.909,15:14:14.909,-9.818359,0.394531,-1.253906,-0.012695,0.040283,0.039307,0.,0.,0.,-3.105225,-0.056396,-0.123535,0.238281,35,29,67,28
7.009,15:14:15.009,-9.277344,0.132812,-1.462891,0.086182,-0.11377,-0.135986,0.,0.,0.,-3.105957,-0.072266,-0.141357,0.238281,31,33,69,25
7.109,15:14:15.109,-9.277344,0.132812,-1.462891,0.086182,-0.11377,-0.135986,0.,0.,0.,-3.105957,-0.072266,-0.141357,0.238281,31,33,69,25
7.209,15:14:15.209,-9.463867,0.959961,0.693359,-0.303223,0.04248,0.212646,0.,0.,0.,-3.075195,-0.051025,-0.086914,0.238281,37,36,70,21
7.309,15:14:15.309,-9.957031,0.099609,-0.046875,-0.26709,-0.084961,0.202148,0.,0.,0.,-3.07959,-0.029785,-0.076416,0.242188,36,35,67,21
7.409,15:14:15.409,-8.960938,-0.293945,-0.930664,-0.023193,0.164795,0.073242,0.,0.,0.,-3.11499,0.00415,-0.091309,0.242188,35,32,65,22
7.509,15:14:15.509,-9.894531,-0.217773,-0.070312,-0.195801,0.076416,-0.04248,0.,0.,0.,-3.118408,0.008789,-0.069336,0.242188,33,32,65,24
7.609,15:14:15.609,-9.726562,-0.688477,-0.688477,-0.302002,0.022217,0.034912,0.,0.,0.,3.135986,0.02002,-0.070557,0.242188,32,32,65,24
7.709,15:14:15.709,-9.209961,-0.170898,0.864258,-0.054199,0.443604,-0.760742,0.,0.,0.,3.131836,-0.008789,-0.036133,0.246094,32,32,66,24
7.809,15:14:15.809,-10.176758,0.204102,-0.564453,-0.000977,-0.061523,-0.036133,0.,0.,0.,-3.138916,-0.040527,-0.034668,0.246094,32,33,67,24
7.909,15:14:15.909,-10.206055,-1.036133,-1.167969,-0.089355,0.456543,0.269043,0.,0.,0.,3.13501,-0.014404,-0.018799,0.246094,32,31,67,24
8.009,15:14:16.009,-9.866211,2.005859,-3.03418,0.169189,-0.154297,-0.193604,0.,0.,0.,3.121338,-0.039307,-0.014648,0.246094,33,23,66,24
8.109,15:14:16.109,-9.726562,-1.720703,-1.015625,-0.134033,0.171143,0.213867,0.,0.,0.,3.116211,-0.005371,-0.001953,0.242188,56,46,65,25
8.209,15:14:16.209,-14.293945,0.494141,1.428711,0.323486,0.239258,0.702148,0.,0.,0.,3.05127,0.020996,0.004883,0.242188,72,121,65,54
8.309,15:14:16.309,-7.500977,-3.24707,0.451172,0.120117,0.883057,-0.095703,0.,0.,0.,3.039795,0.092041,0.095947,0.230469,48,123,65,74
8.409,15:14:16.409,-10.033203,0.964844,2.958984,0.224365,0.677734,-1.219482,0.,0.,0.,3.043701,-0.007812,0.157227,0.203125,33,52,67,51
8.509,15:14:16.509,-9.904297,1.830078,2.939453,0.458496,1.412109,-0.751221,0.,0.,0.,3.078369,-0.095703,0.213135,0.207031,33,52,70,37
8.609,15:14:16.609,-9.31543,1.511719,1.899414,-0.721436,0.127686,-0.252197,0.,0.,0.,3.074463,-0.133545,0.302246,0.203125,33,122,70,59
8.709,15:14:16.709,-10.330078,-1.753906,0.949219,-0.378662,-0.196777,0.45752,0.,0.,0.,3.061035,-0.10498,0.301758,0.203125,33,148,67,74
8.809,15:14:16.809,-13.949219,0.441406,2.335938,-0.602295,-1.177002,0.376709,0.,0.,0.,2.812988,0.108643,0.186768,0.210938,40,149,66,157
8.909,15:14:16.909,-13.370117,-2.495117,-0.536133,-0.622559,-0.335205,-0.626709,0.,0.,0.,2.768555,0.110107,0.072998,0.242188,61,100,70,213
9.009,15:14:17.009,-11.751953,-1.782227,-0.417969,-0.022217,-0.192383,-0.628906,0.,0.,0.,2.758301,0.043213,0.030762,0.234375,75,27,77,231
9.109,15:14:17.109,-9.899414,-1.777344,-0.34668,0.29248,-0.28833,-0.686279,0.,0.,0.,2.762939,-0.008789,0.007568,0.238281,63,27,89,244
9.209,15:14:17.209,-9.655273,-0.456055,-0.522461,0.504395,-0.362793,-0.556396,0.,0.,0.,2.80127,-0.084961,-0.024658,0.320312,55,29,83,246
9.309,15:14:17.309,-9.655273,-0.456055,-0.522461,0.504395,-0.362793,-0.556396,0.,0.,0.,2.80127,-0.084961,-0.024658,0.320312,55,29,83,246
9.409,15:14:17.409,-9.985352,0.626953,0.232422,0.431885,-0.179688,-0.453125,0.,0.,0.,2.858398,-0.122803,-0.038086,0.328125,52,37,75,243
9.509,15:14:17.509,-9.985352,0.626953,0.232422,0.431885,-0.179688,-0.453125,0.,0.,0.,2.858398,-0.122803,-0.038086,0.328125,52,37,75,243
9.609,15:14:17.609,-8.28125,-0.251953,-0.711914,0.273438,0.171143,-0.054199,0.,0.,0.,2.891602,-0.143311,-0.054199,0.324219,49,50,70,231
9.709,15:14:17.709,-7.123047,-1.768555,-2.521484,1.211914,-0.917236,0.164795,0.,0.,0.,2.925537,0.008301,-0.332764,0.3125,38,33,51,252
9.809,15:14:17.809,-6.079102,-0.708008,-4.045898,1.560059,-0.536133,-0.471436,0.,0.,0.,3.086914,-0.09082,-0.404785,0.316406,35,50,47,258
9.909,15:14:17.909,-6.079102,-0.708008,-4.045898,1.560059,-0.536133,-0.471436,0.,0.,0.,3.086914,-0.09082,-0.404785,0.316406,35,50,47,258
10.009,15:14:18.009,-6.079102,-0.708008,-4.045898,1.560059,-0.536133,-0.471436,0.,0.,0.,3.086914,-0.09082,-0.404785,0.316406,35,50,47,258
10.109,15:14:18.109,-6.079102,-0.708008,-4.045898,1.560059,-0.536133,-0.471436,0.,0.,0.,3.086914,-0.09082,-0.404785,0.316406,35,50,47,258
10.209,15:14:18.209,-9.31543,2.176758,-0.916016,1.580322,-0.561768,0.832031,0.,0.,0.,-2.667969,-0.213867,-0.387207,0.308594,35,34,28,271
10.309,15:14:18.309,-8.060547,3.779297,-3.410156,0.442627,0.546875,0.476562,0.,0.,0.,-2.469238,-0.253906,-0.339844,0.300781,36,34,23,82
10.409,15:14:18.409,-8.060547,3.779297,-3.410156,0.442627,0.546875,0.476562,0.,0.,0.,-2.469238,-0.253906,-0.339844,0.300781,36,34,23,82
10.509,15:14:18.509,-11.134766,2.932617,-2.474609,0.30542,-0.380859,-0.02002,0.,0.,0.,-2.393311,-0.263184,-0.245605,0.296875,29,26,22,63
10.609,15:14:18.609,-11.134766,2.932617,-2.474609,0.30542,-0.380859,-0.02002,0.,0.,0.,-2.393311,-0.263184,-0.245605,0.296875,29,26,22,63
10.709,15:14:18.709,-11.115234,2.048828,-2.227539,-0.351074,-0.889648,0.240479,0.,0.,0.,-2.388672,-0.239502,-0.315674,0.296875,29,26,22,68
10.809,15:14:18.809,-11.115234,2.048828,-2.227539,-0.351074,-0.889648,0.240479,0.,0.,0.,-2.388672,-0.239502,-0.315674,0.296875,29,26,22,68
10.909,15:14:18.909,-8.49707,2.624023,-2.583008,-0.249023,-0.356445,-0.786377,0.,0.,0.,-2.402588,-0.276367,-0.4021,0.292969,29,26,22,61
11.009,15:14:19.009,-7.00293,1.382812,-2.478516,-0.887451,-0.080811,-0.825684,0.,0.,0.,-2.489014,-0.307129,-0.421875,0.292969,31,27,22,52
11.109,15:14:19.109,-7.481445,2.125,-3.405273,-0.991699,0.114746,-1.175781,0.,0.,0.,-2.602051,-0.348145,-0.447998,0.296875,100,29,22,31
11.209,15:14:19.209,-8.027344,2.015625,-3.067383,-0.74707,1.064209,-0.5,0.,0.,0.,-2.735107,-0.364502,-0.423584,0.300781,204,29,22,24
11.309,15:14:19.309,-8.027344,2.015625,-3.067383,-0.74707,1.064209,-0.5,0.,0.,0.,-2.735107,-0.364502,-0.423584,0.300781,204,29,22,24
11.409,15:14:19.409,-8.027344,2.015625,-3.067383,-0.74707,1.064209,-0.5,0.,0.,0.,-2.735107,-0.364502,-0.423584,0.300781,204,29,22,24
11.509,15:14:19.509,-9.363281,4.178711,-3.272461,-0.468018,1.041748,-0.518066,0.,0.,0.,-2.945068,-0.427002,-0.217285,0.292969,204,21,169,24
11.609,15:14:19.609,-9.363281,4.178711,-3.272461,-0.468018,1.041748,-0.518066,0.,0.,0.,-2.945068,-0.427002,-0.217285,0.292969,204,21,169,24
11.709,15:14:19.709,-10.196289,3.489258,-1.652344,-0.224365,0.611816,0.162598,0.,0.,0.,-2.992676,-0.418457,-0.163818,0.292969,204,28,267,26
11.809,15:14:19.809,-10.085938,2.120117,-1.410156,-0.018066,1.11084,0.505371,0.,0.,0.,-3.064697,-0.400635,-0.084229,0.289062,180,33,267,29
11.909,15:14:19.909,-9.463867,1.240234,1.001953,-0.02002,0.029785,0.790527,0.,0.,0.,-3.091309,-0.241943,-0.040527,0.3125,146,30,262,39
12.009,15:14:20.009,-9.463867,1.240234,1.001953,-0.02002,0.029785,0.790527,0.,0.,0.,-3.091309,-0.241943,-0.040527,0.3125,146,30,262,39
12.109,15:14:20.109,-8.152344,0.413086,0.864258,0.336182,0.062744,0.556396,0.,0.,0.,-3.039307,-0.078125,-0.018311,0.402344,146,28,283,76
12.209,15:14:20.209,-8.630859,0.72168,1.310547,0.178711,0.166992,-0.167969,0.,0.,0.,-3.018311,-0.060303,-0.000244,0.433594,146,28,251,91
12.309,15:14:20.309,-8.649414,0.227539,1.257812,0.028564,-0.418213,-0.439453,0.,0.,0.,-3.003174,-0.096436,-0.016602,0.371094,146,28,139,115
12.409,15:14:20.409,-10.162109,1.939453,-0.118164,-0.325439,0.274414,-0.617188,0.,0.,0.,-3.020752,-0.13501,-0.030518,0.339844,146,28,131,151
12.509,15:14:20.509,-10.018555,1.805664,0.688477,-0.242432,0.571289,-0.149902,0.,0.,0.,-3.057861,-0.182617,0.010986,0.320312,146,27,221,206
12.609,15:14:20.609,-10.018555,1.805664,0.688477,-0.242432,0.571289,-0.149902,0.,0.,0.,-3.057861,-0.182617,0.010986,0.320312,146,27,221,206
12.709,15:14:20.709,-9.49707,2.423828,-0.046875,-0.59375,0.30542,0.358398,0.,0.,0.,-3.117188,-0.163574,0.04126,0.257812,146,26,255,206
12.809,15:14:20.809,-9.114258,0.959961,0.626953,0.359619,0.522461,-0.404297,0.,0.,0.,3.126465,-0.191406,0.086182,0.257812,146,26,267,207
12.909,15:14:20.909,-8.9375,1.045898,1.348633,0.557617,-0.38501,-0.263916,0.,0.,0.,-3.090576,-0.204102,0.101074,0.257812,146,27,235,97
13.009,15:14:21.009,-9.185547,0.617188,0.783203,-1.093994,-1.347168,-0.651123,0.,0.,0.,-3.08374,-0.243164,0.005127,0.257812,148,28,127,24
13.109,15:14:21.109,-9.526367,1.739258,-1.642578,-1.901611,-0.633057,-0.048828,0.,0.,0.,3.053223,-0.262939,-0.150635,0.257812,150,28,92,23
13.209,15:14:21.209,-9.137695,1.501953,-1.837891,0.046631,0.080811,0.42334,0.,0.,0.,2.966309,-0.21582,-0.210938,0.257812,228,27,92,23
13.309,15:14:21.309,-8.999023,1.749023,-1.671875,0.064697,0.418213,0.1521,0.,0.,0.,2.99292,-0.177734,-0.177734,0.257812,280,27,88,22
13.409,15:14:21.409,-9.099609,1.667969,-1.129883,-0.377686,0.186035,-0.052979,0.,0.,0.,2.957764,-0.155273,-0.147461,0.222656,278,27,79,22
13.509,15:14:21.509,-9.124023,1.568359,-0.768555,-0.535156,0.557617,-0.200928,0.,0.,0.,2.911621,-0.160156,-0.130615,0.210938,277,27,74,24
13.609,15:14:21.609,-8.563477,1.364258,-0.826172,-1.01416,0.027588,-0.126465,0.,0.,0.,2.83374,-0.164307,-0.112061,0.210938,274,27,68,26
13.709,15:14:21.709,-13.216797,3.541016,-1.794922,-1.065186,-0.205322,0.44043,0.,0.,0.,2.713135,-0.145996,-0.123291,0.210938,272,24,64,26
13.809,15:14:21.809,-10.09082,0.517578,-0.108398,-0.246826,0.103027,0.479736,0.,0.,0.,2.683105,-0.102539,-0.126221,0.210938,191,65,61,26
13.909,15:14:21.909,-11.397461,1.46875,1.053711,-0.455322,0.585205,0.005127,0.,0.,0.,2.623779,-0.084717,-0.09668,0.210938,138,128,58,26
14.009,15:14:22.009,-11.397461,1.46875,1.053711,-0.455322,0.585205,0.005127,0.,0.,0.,2.623779,-0.084717,-0.09668,0.210938,138,128,58,26
14.109,15:14:22.109,-9.932617,2.148438,-0.204102,-0.018066,0.445801,0.083008,0.,0.,0.,2.594727,-0.147461,-0.058105,0.210938,232,27,54,26
14.209,15:14:22.209,-9.333984,1.435547,0.141602,0.094482,-0.044678,0.683105,0.,0.,0.,2.611816,-0.099365,-0.034668,0.210938,229,59,53,26
14.309,15:14:22.309,-9.808594,0.669922,-0.759766,0.052002,-0.116943,-0.390381,0.,0.,0.,2.609619,-0.072266,-0.0979,0.210938,230,25,52,25
14.409,15:14:22.409,-8.792969,-0.831055,-0.949219,0.376709,-0.044678,0.107422,0.,0.,0.,2.61377,-0.086182,-0.111572,0.210938,242,24,52,25
14.509,15:14:22.509,-8.792969,-0.831055,-0.949219,0.376709,-0.044678,0.107422,0.,0.,0.,2.61377,-0.086182,-0.111572,0.210938,242,24,52,25
14.609,15:14:22.609,-9.597656,0.512695,-1.063477,-0.063721,0.054199,0.36499,0.,0.,0.,2.609619,-0.055176,-0.11499,0.210938,252,24,53,25
14.709,15:14:22.709,-9.597656,0.512695,-1.063477,-0.063721,0.054199,0.36499,0.,0.,0.,2.609619,-0.055176,-0.11499,0.210938,252,24,53,25
14.809,15:14:22.809,-9.932617,0.046875,-0.982422,-0.181885,-0.036133,0.125488,0.,0.,0.,2.60791,-0.027344,-0.121094,0.210938,267,23,56,26
14.909,15:14:22.909,-8.889648,0.789062,-3.072266,0.259521,0.344727,-0.080811,0.,0.,0.,2.591064,-0.066406,-0.357422,0.210938,262,25,57,27
15.009,15:14:23.009,-9.574219,0.888672,-2.962891,0.344727,0.089355,0.439453,0.,0.,0.,2.632568,-0.051514,-0.329346,0.210938,239,26,60,28
15.109,15:14:23.109,-9.574219,0.888672,-2.962891,0.344727,0.089355,0.439453,0.,0.,0.,2.632568,-0.051514,-0.329346,0.210938,239,26,60,28
15.209,15:14:23.209,-9.597656,0.835938,-3.115234,0.077637,-0.161621,-0.209473,0.,0.,0.,2.647461,-0.042969,-0.333496,0.210938,231,28,59,28
15.309,15:14:23.309,-9.597656,0.835938,-3.115234,0.077637,-0.161621,-0.209473,0.,0.,0.,2.647461,-0.042969,-0.333496,0.210938,231,28,59,28
15.409,15:14:23.409,-9.295898,0.888672,-3.433594,0.094482,0.107422,-0.197754,0.,0.,0.,2.651367,-0.070068,-0.345459,0.210938,231,26,59,27
15.509,15:14:23.509,-9.295898,0.888672,-3.433594,0.094482,0.107422,-0.197754,0.,0.,0.,2.651367,-0.070068,-0.345459,0.210938,231,26,59,27
15.609,15:14:23.609,-8.764648,1.677734,-1.287109,0.277588,1.069336,0.396729,0.,0.,0.,2.672852,-0.090332,-0.22168,0.210938,111,28,59,27
15.709,15:14:23.709,-8.764648,1.677734,-1.287109,0.277588,1.069336,0.396729,0.,0.,0.,2.672852,-0.090332,-0.22168,0.210938,111,28,59,27
15.809,15:14:23.809,-10.344727,2.756836,1.320312,-0.067871,0.992676,0.153076,0.,0.,0.,2.70874,-0.070068,-0.131836,0.210938,77,30,59,30
15.909,15:14:23.909,-10.344727,2.756836,1.320312,-0.067871,0.992676,0.153076,0.,0.,0.,2.70874,-0.070068,-0.131836,0.210938,77,30,59,30
16.009,15:14:24.009,-10.253906,1.064453,0.089844,-0.38623,0.320312,-0.601074,0.,0.,0.,2.680908,-0.088135,-0.069824,0.210938,68,28,59,30
16.109,15:14:24.109,-9.832031,1.382812,-0.459961,-0.329834,-0.131836,-0.394775,0.,0.,0.,2.646729,-0.137939,-0.078125,0.210938,63,27,54,27
16.209,15:14:24.209,-9.444336,1.563477,-0.660156,-0.115967,0.189209,-0.014893,0.,0.,0.,2.628906,-0.144043,-0.088623,0.210938,59,25,51,26
16.309,15:14:24.309,-8.697266,1.530273,0.008789,0.15625,0.02124,-0.066895,0.,0.,0.,2.633301,-0.141113,-0.066895,0.210938,57,25,49,26
16.409,15:14:24.409,-9.49707,1.192383,-0.431641,-0.031738,0.233887,-0.238281,0.,0.,0.,2.642822,-0.154297,-0.064209,0.210938,56,71,49,24
16.509,15:14:24.509,-9.358398,1.520508,0.013672,-0.196777,0.111572,-0.217041,0.,0.,0.,2.626709,-0.170654,-0.053711,0.210938,54,103,44,21
16.609,15:14:24.609,-9.056641,1.611328,-0.113281,-0.018066,0.459717,0.247803,0.,0.,0.,2.630859,-0.162109,-0.02832,0.210938,51,103,41,21
16.709,15:14:24.709,-9.425781,1.944336,-1.106445,-0.033936,-0.380859,0.373535,0.,0.,0.,2.616943,-0.13208,-0.028809,0.210938,55,104,34,21
16.809,15:14:24.809,-9.348633,0.003906,-0.726562,-0.040283,-0.091309,-0.242432,0.,0.,0.,2.623047,-0.119141,-0.049072,0.210938,61,58,30,21
16.909,15:14:24.909,-10.478516,1.501953,-0.821289,0.138184,0.047852,0.081787,0.,0.,0.,2.642578,-0.130615,-0.055664,0.210938,53,28,29,21
17.009,15:14:25.009,-10.478516,1.501953,-0.821289,0.138184,0.047852,0.081787,0.,0.,0.,2.642578,-0.130615,-0.055664,0.210938,53,28,29,21
17.109,15:14:25.109,-9.28125,1.416016,0.123047,-0.203125,-0.659668,0.337158,0.,0.,0.,2.654053,-0.110352,-0.099365,0.210938,44,108,29,21
17.209,15:14:25.209,-9.37793,0.384766,-2.929688,0.429932,-0.924561,0.622559,0.,0.,0.,2.656006,-0.059082,-0.197998,0.210938,47,108,31,21
17.309,15:14:25.309,-9.574219,0.626953,-2.944336,0.129639,-0.154297,-0.127686,0.,0.,0.,2.690918,-0.060791,-0.228516,0.210938,38,112,35,24
17.409,15:14:25.409,-9.574219,0.626953,-2.944336,0.129639,-0.154297,-0.127686,0.,0.,0.,2.690918,-0.060791,-0.228516,0.210938,38,112,35,24
17.509,15:14:25.509,-9.104492,0.969727,-1.295898,0.102051,0.286133,-0.280762,0.,0.,0.,2.701416,-0.104248,-0.213379,0.210938,35,128,30,30
17.609,15:14:25.609,-9.104492,0.969727,-1.295898,0.102051,0.286133,-0.280762,0.,0.,0.,2.701416,-0.104248,-0.213379,0.210938,35,128,30,30
17.709,15:14:25.709,-9.889648,1.074219,-1.652344,0.101074,0.217041,0.178711,0.,0.,0.,2.708984,-0.115967,-0.197021,0.210938,34,119,29,30
17.809,15:14:25.809,-9.889648,1.074219,-1.652344,0.101074,0.217041,0.178711,0.,0.,0.,2.708984,-0.115967,-0.197021,0.210938,34,119,29,30
17.909,15:14:25.909,-9.708008,1.240234,-1.282227,0.091309,-0.030762,-0.11377,0.,0.,0.,2.718994,-0.115967,-0.189697,0.210938,34,113,29,30
18.009,15:14:26.009,-9.587891,0.983398,-0.34668,-0.086182,0.043457,0.124512,0.,0.,0.,2.724854,-0.11377,-0.189453,0.210938,34,107,28,30
18.109,15:14:26.109,-9.770508,0.327148,-1.529297,0.089355,0.051025,0.093506,0.,0.,0.,2.730469,-0.095947,-0.197021,0.210938,34,107,27,30
18.209,15:14:26.209,-9.46875,0.72168,-2.332031,-0.099854,-0.203125,0.135986,0.,0.,0.,2.727051,-0.082031,-0.211182,0.210938,34,113,27,30
18.309,15:14:26.309,-8.841797,-1.558594,-1.239258,0.005127,0.38501,-0.143555,0.,0.,0.,2.749268,-0.03833,-0.239258,0.210938,56,117,29,30
18.409,15:14:26.409,-9.683594,1.079102,-2.118164,0.399902,0.212646,0.033936,0.,0.,0.,2.752441,-0.058594,-0.234131,0.210938,44,117,28,30
18.509,15:14:26.509,-9.540039,0.865234,-2.056641,0.090332,-0.065918,-0.268066,0.,0.,0.,2.752686,-0.076904,-0.235107,0.210938,36,116,28,30
18.609,15:14:26.609,-9.540039,0.865234,-2.056641,0.090332,-0.065918,-0.268066,0.,0.,0.,2.752686,-0.076904,-0.235107,0.210938,36,116,28,30
18.709,15:14:26.709,-9.401367,1.154297,-2.289062,0.036133,-0.123291,-0.458496,0.,0.,0.,2.756836,-0.108887,-0.248047,0.210938,40,115,28,30
18.809,15:14:26.809,-9.257812,1.054688,-2.450195,-0.083984,0.204102,-0.608643,0.,0.,0.,2.753662,-0.163818,-0.255615,0.210938,44,115,29,28
18.909,15:14:26.909,-9.238281,0.865234,-2.383789,0.126465,0.102051,-0.29248,0.,0.,0.,2.750977,-0.197021,-0.244385,0.210938,40,115,31,27
19.009,15:14:27.009,-9.267578,1.991211,-1.443359,-0.140381,0.265869,-0.381836,0.,0.,0.,2.749512,-0.225342,-0.218262,0.210938,38,115,30,27
19.109,15:14:27.109,-9.454102,2.324219,-1.619141,0.135986,-0.116943,0.043457,0.,0.,0.,2.76123,-0.230469,-0.215088,0.210938,36,115,30,27
19.209,15:14:27.209,-9.444336,2.428711,-1.917969,0.023193,0.178711,-0.063721,0.,0.,0.,2.767822,-0.223389,-0.212402,0.210938,36,115,30,27
19.309,15:14:27.309,-9.089844,1.402344,-1.837891,0.061523,0.19043,-0.381836,0.,0.,0.,2.755127,-0.229248,-0.202637,0.210938,36,85,32,27
19.409,15:14:27.409,-9.089844,1.402344,-1.837891,0.061523,0.19043,-0.381836,0.,0.,0.,2.755127,-0.229248,-0.202637,0.210938,36,85,32,27
19.509,15:14:27.509,-9.574219,2.324219,-1.567383,0.,0.285156,0.352051,0.,0.,0.,2.714111,-0.231689,-0.164795,0.210938,36,71,35,27
19.609,15:14:27.609,-9.574219,2.324219,-1.567383,0.,0.285156,0.352051,0.,0.,0.,2.714111,-0.231689,-0.164795,0.210938,36,71,35,27
19.709,15:14:27.709,-9.506836,1.65918,-1.700195,0.157471,0.425537,-0.039307,0.,0.,0.,2.732422,-0.201904,-0.137451,0.210938,40,29,34,27
19.809,15:14:27.809,-9.506836,1.65918,-1.700195,0.157471,0.425537,-0.039307,0.,0.,0.,2.732422,-0.201904,-0.137451,0.210938,40,29,34,27
19.909,15:14:27.909,-9.40625,3.250977,-0.882812,-0.218994,0.019043,0.128662,0.,0.,0.,2.71875,-0.211182,-0.111572,0.210938,55,27,34,25
20.009,15:14:28.009,-8.616211,4.506836,0.327148,0.615967,-0.146729,0.59375,0.,0.,0.,2.750977,-0.350098,-0.013428,0.210938,47,57,32,29
20.109,15:14:28.109,-9.49707,3.583984,-0.332031,-0.122314,-0.023193,0.083984,0.,0.,0.,2.772949,-0.313721,-0.019775,0.210938,44,102,33,29
20.209,15:14:28.209,-8.9375,4.501953,-1.609375,-0.589355,-0.041504,0.463867,0.,0.,0.,2.747803,-0.315918,-0.02417,0.210938,48,106,34,29
20.309,15:14:28.309,-9.094727,2.03418,-0.056641,-0.264893,0.081787,-0.010498,0.,0.,0.,2.718506,-0.266113,-0.015381,0.210938,48,110,33,29
20.409,15:14:28.409,-9.094727,2.03418,-0.056641,-0.264893,0.081787,-0.010498,0.,0.,0.,2.718506,-0.266113,-0.015381,0.210938,48,110,33,29
20.509,15:14:28.509,-9.094727,2.03418,-0.056641,-0.264893,0.081787,-0.010498,0.,0.,0.,2.718506,-0.266113,-0.015381,0.210938,48,110,33,29
20.609,15:14:28.609,-9.574219,2.74707,0.293945,-0.226562,0.480957,-0.191406,0.,0.,0.,2.65332,-0.284668,0.045166,0.210938,33,104,28,29
20.709,15:14:28.709,-9.818359,2.794922,1.700195,-0.203125,1.001221,-0.089355,0.,0.,0.,2.615479,-0.302979,0.115234,0.210938,33,105,28,28
20.809,15:14:28.809,-9.765625,2.248047,3.25293,0.060547,0.281982,-0.233887,0.,0.,0.,2.627197,-0.306641,0.167969,0.210938,41,107,28,28
20.909,15:14:28.909,-9.530273,2.733398,2.302734,-0.022217,-1.47168,-0.064697,0.,0.,0.,2.663818,-0.294189,0.103027,0.210938,55,105,29,28
21.009,15:14:29.009,-10.44043,2.272461,-1.999023,0.166016,-0.090332,-0.218994,0.,0.,0.,2.719727,-0.279541,0.049561,0.210938,55,104,29,28
21.109,15:14:29.109,-10.44043,2.272461,-1.999023,0.166016,-0.090332,-0.218994,0.,0.,0.,2.719727,-0.279541,0.049561,0.210938,55,104,29,28
21.209,15:14:29.209,-9.037109,2.542969,1.600586,0.895996,0.000977,0.000977,0.,0.,0.,2.776855,-0.275879,0.060303,0.210938,57,105,29,25
21.309,15:14:29.309,-9.037109,2.542969,1.600586,0.895996,0.000977,0.000977,0.,0.,0.,2.776855,-0.275879,0.060303,0.210938,57,105,29,25
21.409,15:14:29.409,-8.774414,2.614258,1.196289,0.932129,0.415039,0.072266,0.,0.,0.,2.868652,-0.263916,0.098633,0.210938,58,106,32,22
21.509,15:14:29.509,-8.774414,2.614258,1.196289,0.932129,0.415039,0.072266,0.,0.,0.,2.868652,-0.263916,0.098633,0.210938,58,106,32,22
21.609,15:14:29.609,-9.583008,2.595703,1.139648,0.972656,0.455322,0.389404,0.,0.,0.,2.963379,-0.215576,0.15918,0.210938,60,59,35,22
21.709,15:14:29.709,-9.583008,2.595703,1.139648,0.972656,0.455322,0.389404,0.,0.,0.,2.963379,-0.215576,0.15918,0.210938,60,59,35,22
21.809,15:14:29.809,-9.171875,1.782227,2.93457,0.923584,0.74707,-0.153076,0.,0.,0.,3.052734,-0.179688,0.226318,0.210938,68,28,35,23
21.909,15:14:29.909,-9.171875,1.782227,2.93457,0.923584,0.74707,-0.153076,0.,0.,0.,3.052734,-0.179688,0.226318,0.210938,68,28,35,23
22.009,15:14:30.009,-8.424805,1.901367,4.108398,-0.273438,-0.00415,0.19043,0.,0.,0.,3.037109,-0.234375,0.350586,0.210938,40,24,86,22
22.109,15:14:30.109,-8.424805,1.901367,4.108398,-0.273438,-0.00415,0.19043,0.,0.,0.,3.037109,-0.234375,0.350586,0.210938,40,24,86,22
22.209,15:14:30.209,-8.592773,2.100586,2.811523,-0.346924,0.033936,0.174316,0.,0.,0.,3.002197,-0.217529,0.337402,0.210938,37,24,244,22
22.309,15:14:30.309,-8.946289,1.473633,2.801758,-0.006348,0.314941,-0.016846,0.,0.,0.,2.98877,-0.218018,0.359619,0.210938,33,24,297,24
22.409,15:14:30.409,-8.017578,1.796875,3.120117,-0.116943,0.016846,-0.204102,0.,0.,0.,3.005615,-0.281006,0.398682,0.210938,31,24,297,54
22.509,15:14:30.509,-8.304688,2.196289,3.25293,-0.124512,0.166016,-0.17334,0.,0.,0.,2.991943,-0.300293,0.401855,0.210938,31,25,296,93
22.609,15:14:30.609,-8.304688,2.196289,3.25293,-0.124512,0.166016,-0.17334,0.,0.,0.,2.991943,-0.300293,0.401855,0.210938,31,25,296,93
22.709,15:14:30.709,-8.505859,2.728516,4.544922,-0.531006,0.269043,-0.257324,0.,0.,0.,2.950439,-0.335693,0.407471,0.210938,31,26,286,93
22.809,15:14:30.809,-8.319336,3.298828,3.999023,-1.017334,0.225586,-0.033936,0.,0.,0.,2.810303,-0.385742,0.378174,0.210938,32,27,245,93
22.909,15:14:30.909,-8.319336,3.298828,3.999023,-1.017334,0.225586,-0.033936,0.,0.,0.,2.810303,-0.385742,0.378174,0.210938,32,27,245,93
23.009,15:14:31.009,-8.419922,4.064453,3.010742,-0.568115,-0.274414,-0.202148,0.,0.,0.,2.638428,-0.450928,0.29541,0.210938,36,103,232,91
23.109,15:14:31.109,-8.453125,4.235352,2.255859,-0.412842,0.119141,0.227539,0.,0.,0.,2.594727,-0.455811,0.25708,0.210938,39,103,228,91
23.209,15:14:31.209,-9.55957,4.540039,2.350586,-0.127686,0.166992,-0.013672,0.,0.,0.,2.583008,-0.44043,0.250244,0.210938,41,46,227,89
23.309,15:14:31.309,-8.625977,4.725586,3.276367,-0.387207,0.123291,0.528809,0.,0.,0.,2.561768,-0.437988,0.23999,0.210938,97,47,227,88
23.409,15:14:31.409,-8.338867,3.365234,2.536133,0.074463,-0.155273,0.119141,0.,0.,0.,2.558105,-0.394287,0.226562,0.210938,135,110,230,89
23.509,15:14:31.509,-9.02832,4.036133,2.317383,-1.007568,0.245605,0.108398,0.,0.,0.,2.507568,-0.388672,0.212646,0.210938,135,131,239,90
23.609,15:14:31.609,-8.535156,4.054688,3.201172,-0.684082,0.200928,0.217041,0.,0.,0.,2.433105,-0.380859,0.206055,0.210938,135,132,241,91
23.709,15:14:31.709,-8.424805,3.446289,2.455078,-1.216309,0.522461,0.505371,0.,0.,0.,2.330078,-0.358398,0.19751,0.210938,135,132,240,92
23.809,15:14:31.809,-8.688477,2.571289,2.388672,-0.342529,0.425537,0.369141,0.,0.,0.,2.249268,-0.334961,0.206787,0.210938,135,131,240,92
23.909,15:14:31.909,-9.712891,3.046875,1.5625,-0.592529,0.333008,0.121094,0.,0.,0.,2.190186,-0.350342,0.216553,0.210938,139,131,240,92
24.009,15:14:32.009,-8.917969,3.94043,2.013672,-0.951172,0.562744,-0.264893,0.,0.,0.,2.105225,-0.417969,0.223145,0.210938,142,133,240,90
24.109,15:14:32.109,-7.926758,3.275391,3.171875,-1.05249,-0.064697,0.016846,0.,0.,0.,2.035889,-0.453369,0.212646,0.210938,191,133,240,90
24.209,15:14:32.209,-7.586914,5.086914,1.272461,0.268066,-0.458496,0.038086,0.,0.,0.,2.027344,-0.456543,0.148926,0.210938,225,134,222,90
24.309,15:14:32.309,-7.8125,3.660156,0.826172,-0.570312,0.744873,-1.043945,0.,0.,0.,2.011475,-0.456055,0.133057,0.210938,238,134,195,91
24.409,15:14:32.409,-7.123047,5.428711,1.761719,-0.383057,0.863037,-1.112061,0.,0.,0.,1.920654,-0.575439,0.188477,0.210938,248,136,202,90
24.509,15:14:32.509,-8.180664,7.876953,2.920898,0.357422,0.416992,0.570312,0.,0.,0.,1.869385,-0.635498,0.235596,0.296875,248,136,213,90
24.609,15:14:32.609,-8.324219,4.225586,2.027344,0.003174,-1.59082,1.040771,0.,0.,0.,1.945068,-0.496094,0.20166,0.230469,254,137,205,91
24.709,15:14:32.709,-8.668945,4.463867,0.208984,-0.353271,0.072266,0.025391,0.,0.,0.,1.956787,-0.466553,0.105469,0.304688,269,137,194,91
24.809,15:14:32.809,-8.396484,4.553711,2.246094,-0.280762,0.571289,-0.040283,0.,0.,0.,1.902832,-0.479492,0.141113,0.351562,269,139,191,89
24.909,15:14:32.909,-9.008789,4.349609,1.652344,-0.137207,-0.332031,-0.081787,0.,0.,0.,1.891846,-0.473389,0.122314,0.25,255,140,188,89
25.009,15:14:33.009,-8.286133,4.041016,1.144531,-0.263916,0.245605,-0.27124,0.,0.,0.,1.871094,-0.480469,0.102783,0.214844,251,142,189,89
25.109,15:14:33.109,-8.779297,4.558594,1.010742,-0.21582,0.081787,0.018066,0.,0.,0.,1.845459,-0.504883,0.083496,0.210938,253,141,191,89
25.209,15:14:33.209,-8.060547,5.443359,0.545898,-0.40332,-0.001953,-0.052002,0.,0.,0.,1.825928,-0.520996,0.066162,0.203125,254,140,183,89
25.309,15:14:33.309,-8.118164,4.654297,-0.151367,-0.268066,-0.245605,-0.208496,0.,0.,0.,1.807373,-0.520752,0.046875,0.199219,256,145,172,89
25.409,15:14:33.409,-8.228516,5.71875,0.555664,-0.02002,0.083008,-0.155273,0.,0.,0.,1.794189,-0.546387,0.032715,0.199219,257,149,172,89
25.509,15:14:33.509,-8.30957,5.504883,0.474609,0.066895,-0.280762,0.204102,0.,0.,0.,1.79834,-0.533203,0.028809,0.199219,257,142,173,89
25.609,15:14:33.609,-8.353516,4.44043,-0.488281,0.102051,0.130859,0.069092,0.,0.,0.,1.842773,-0.456787,-0.01123,0.207031,287,146,178,89
25.709,15:14:33.709,-8.353516,4.44043,-0.488281,0.102051,0.130859,0.069092,0.,0.,0.,1.842773,-0.456787,-0.01123,0.207031,287,146,178,89
25.809,15:14:33.809,-8.683594,4.25,0.773438,0.180908,0.269043,0.231934,0.,0.,0.,1.836182,-0.449707,0.016846,0.332031,291,152,181,89
25.909,15:14:33.909,-9.884766,4.22168,0.170898,0.092529,-0.051025,-0.122314,0.,0.,0.,1.863281,-0.4375,0.018311,0.351562,280,152,184,89
26.009,15:14:34.009,-8.540039,5.224609,-0.50293,-0.247803,-0.197754,-0.341553,0.,0.,0.,1.864014,-0.477051,-0.003906,0.351562,273,152,196,89
26.109,15:14:34.109,-8.492188,4.667969,-0.336914,-0.030762,0.078613,-0.026367,0.,0.,0.,1.885254,-0.475342,-0.008789,0.359375,261,149,205,89
26.209,15:14:34.209,-8.941406,5.191406,0.037109,0.02124,0.02124,-0.179688,0.,0.,0.,1.893799,-0.491455,-0.001465,0.371094,257,148,188,89
26.309,15:14:34.309,-8.300781,5.143555,0.451172,0.049805,-0.22876,0.105225,0.,0.,0.,1.914551,-0.489014,-0.00293,0.378906,259,146,178,89
26.409,15:14:34.409,-8.032227,4.364258,-0.569336,0.02002,-0.018066,0.026367,0.,0.,0.,1.938477,-0.471924,-0.015869,0.402344,257,145,176,89
26.509,15:14:34.509,-8.362305,4.288086,0.170898,0.015869,0.336182,-0.024414,0.,0.,0.,1.937744,-0.464355,0.006836,0.449219,255,144,175,89
26.609,15:14:34.609,-8.540039,4.796875,0.963867,0.012695,0.308594,-0.006348,0.,0.,0.,1.933105,-0.469482,0.031738,0.4375,255,144,187,89
26.709,15:14:34.709,-8.941406,4.654297,0.897461,-0.115967,0.019043,0.046631,0.,0.,0.,1.935059,-0.464355,0.039795,0.410156,255,146,196,89
26.809,15:14:34.809,-8.792969,4.548828,0.161133,-0.171143,-0.225586,-0.057373,0.,0.,0.,1.94165,-0.463623,0.024902,0.398438,254,148,187,89
26.909,15:14:34.909,-8.792969,4.548828,0.161133,-0.171143,-0.225586,-0.057373,0.,0.,0.,1.94165,-0.463623,0.024902,0.398438,254,148,187,89
27.009,15:14:35.009,-8.137695,4.331055,-0.099609,-0.103027,0.014893,-0.162598,0.,0.,0.,1.94873,-0.465088,0.012939,0.402344,254,145,182,89
27.109,15:14:35.109,-8.500977,4.729492,0.379883,0.02002,0.003174,-0.094482,0.,0.,0.,1.942383,-0.480713,0.033203,0.394531,253,152,183,89
27.209,15:14:35.209,-8.419922,4.953125,0.768555,0.044678,0.206299,-0.139404,0.,0.,0.,1.941895,-0.490723,0.040771,0.390625,254,155,183,89
27.309,15:14:35.309,-8.051758,4.701172,1.010742,0.095703,-0.189209,0.146729,0.,0.,0.,1.953125,-0.490234,0.03833,0.386719,257,156,182,89
27.409,15:14:35.409,-8.367188,4.834961,0.322266,0.036133,-0.148926,0.200928,0.,0.,0.,1.977783,-0.473145,0.025391,0.402344,255,156,182,89
27.509,15:14:35.509,-10.229492,3.389648,2.459961,0.067871,-0.348877,0.38501,0.,0.,0.,1.999023,-0.451416,0.006592,0.394531,253,153,186,89
27.609,15:14:35.609,-8.745117,3.617188,-0.417969,0.038086,-0.049805,0.145752,0.,0.,0.,2.030029,-0.420166,-0.036377,0.371094,253,156,199,89
27.709,15:14:35.709,-9.114258,3.717773,-0.375,-0.072266,0.213867,0.11792,0.,0.,0.,2.033936,-0.411377,-0.026123,0.398438,254,170,197,157
27.809,15:14:35.809,-8.822266,3.408203,-0.479492,0.034912,0.089355,0.479736,0.,0.,0.,2.048096,-0.373535,-0.020264,0.382812,255,170,178,260
27.909,15:14:35.909,-8.927734,2.74707,-0.179688,0.21582,0.012695,0.388428,0.,0.,0.,2.066895,-0.331055,-0.01416,0.234375,256,156,190,260
28.009,15:14:36.009,-8.927734,2.74707,-0.179688,0.21582,0.012695,0.388428,0.,0.,0.,2.066895,-0.331055,-0.01416,0.234375,256,156,190,260
28.109,15:14:36.109,-9.741211,1.359375,-0.526367,0.170166,0.275391,0.345703,0.,0.,0.,2.130371,-0.227295,-0.040039,0.234375,257,155,261,155
28.209,15:14:36.209,-8.90332,1.768555,-1.595703,0.074463,-0.07959,0.279785,0.,0.,0.,2.138184,-0.212646,-0.059326,0.234375,257,156,260,85
28.309,15:14:36.309,-9.233398,2.856445,-0.806641,-0.206299,0.283936,-0.064697,0.,0.,0.,2.121094,-0.223877,-0.072266,0.234375,257,156,260,83
28.409,15:14:36.409,-10.100586,1.425781,-0.327148,0.023193,-0.61084,0.526611,0.,0.,0.,2.118652,-0.188477,-0.073242,0.234375,257,156,260,82
28.509,15:14:36.509,-10.014648,2.628906,-1.619141,-0.150879,-0.348877,0.546875,0.,0.,0.,2.145752,-0.180908,-0.144043,0.234375,257,156,260,82
28.609,15:14:36.609,-10.416016,1.107422,-1.90918,0.36377,0.108398,0.682129,0.,0.,0.,2.173828,-0.120605,-0.142578,0.234375,257,163,260,83
28.709,15:14:36.709,-9.171875,0.793945,-1.111328,0.282959,0.477783,0.185059,0.,0.,0.,2.202881,-0.109131,-0.109131,0.234375,258,174,259,83
28.809,15:14:36.809,-9.454102,0.998047,-0.645508,0.181885,0.425537,0.304199,0.,0.,0.,2.212402,-0.085205,-0.058594,0.234375,258,174,259,83
28.909,15:14:36.909,-9.243164,0.807617,-0.003906,0.126465,0.53418,-0.456543,0.,0.,0.,2.233154,-0.079102,-0.009033,0.234375,258,174,258,81
29.009,15:14:37.009,-9.243164,0.807617,-0.003906,0.126465,0.53418,-0.456543,0.,0.,0.,2.233154,-0.079102,-0.009033,0.234375,258,174,258,81
29.109,15:14:37.109,-10.617188,1.178711,0.94043,-0.377686,-0.3479,0.02124,0.,0.,0.,2.140137,-0.083008,-0.032227,0.234375,257,174,258,81
29.209,15:14:37.209,-9.386719,1.107422,-1.21582,0.399902,-0.296875,0.169189,0.,0.,0.,2.161377,-0.086182,-0.065674,0.234375,256,174,259,82
29.309,15:14:37.309,-9.391602,0.959961,-0.726562,0.030762,0.447998,0.047852,0.,0.,0.,2.182129,-0.080811,-0.055664,0.234375,256,174,259,82
29.409,15:14:37.409,-9.798828,0.18457,-0.655273,-0.814941,0.372314,-0.032959,0.,0.,0.,2.145264,-0.06543,-0.030518,0.234375,256,174,261,82
29.509,15:14:37.509,-9.458984,1.130859,0.726562,-0.427734,0.294678,0.164795,0.,0.,0.,2.066162,-0.049561,0.009277,0.234375,257,174,261,82
29.609,15:14:37.609,-9.889648,0.061523,0.835938,-0.240479,-0.041504,0.302002,0.,0.,0.,2.060547,-0.030273,0.02417,0.234375,257,174,261,82
29.709,15:14:37.709,-9.286133,-0.113281,0.336914,-0.374512,-0.383057,-0.099854,0.,0.,0.,2.003418,-0.016846,-0.000488,0.234375,257,174,192,82
29.809,15:14:37.809,-9.870117,0.142578,-0.94043,0.063721,-0.243652,-0.345703,0.,0.,0.,2.009277,-0.034668,-0.04248,0.234375,259,218,90,82
29.909,15:14:37.909,-9.9375,0.275391,-0.493164,0.537354,0.265869,-0.104248,0.,0.,0.,2.04834,-0.039795,-0.039795,0.234375,267,286,90,82
30.009,15:14:38.009,-9.774414,-0.02832,-0.023438,0.468018,0.023193,-0.077637,0.,0.,0.,2.105225,-0.046143,-0.020996,0.234375,288,286,90,82
30.109,15:14:38.109,-10.138672,1.016602,-0.222656,0.547852,-0.209473,-0.019043,0.,0.,0.,2.14502,-0.061035,-0.031006,0.234375,287,286,159,82
30.209,15:14:38.209,-10.344727,0.59375,-0.588867,0.604248,-0.047852,-0.285156,0.,0.,0.,2.213867,-0.074951,-0.04248,0.234375,264,286,263,117
30.309,15:14:38.309,-9.665039,0.898438,-0.958984,0.756592,0.02002,-0.202148,0.,0.,0.,2.276855,-0.091797,-0.034668,0.234375,256,286,263,222
30.409,15:14:38.409,-9.673828,1.420898,-0.208984,-0.129639,0.040283,-0.087158,0.,0.,0.,2.490234,-0.127441,0.000732,0.234375,225,286,263,86
30.509,15:14:38.509,-9.673828,1.420898,-0.208984,-0.129639,0.040283,-0.087158,0.,0.,0.,2.490234,-0.127441,0.000732,0.234375,225,286,263,86
30.609,15:14:38.609,-9.487305,1.097656,0.066406,-0.468018,-0.11377,0.231934,0.,0.,0.,2.476318,-0.110352,0.001465,0.234375,224,286,264,86
30.709,15:14:38.709,-9.625977,0.926758,0.12793,0.265869,0.027588,0.145752,0.,0.,0.,2.463867,-0.090088,-0.008301,0.234375,223,286,263,86
30.809,15:14:38.809,-9.625977,0.926758,0.12793,0.265869,0.027588,0.145752,0.,0.,0.,2.463867,-0.090088,-0.008301,0.234375,223,286,263,86
30.909,15:14:38.909,-10.100586,0.769531,-0.237305,0.103027,0.030762,-0.006348,0.,0.,0.,2.507324,-0.0896,-0.010986,0.234375,223,286,263,89
31.009,15:14:39.009,-10.100586,0.769531,-0.237305,0.103027,0.030762,-0.006348,0.,0.,0.,2.507324,-0.0896,-0.010986,0.234375,223,286,263,89
31.109,15:14:39.109,-10.176758,0.888672,0.118164,0.005127,0.081787,-0.163818,0.,0.,0.,2.498535,-0.098145,-0.003906,0.234375,223,286,263,93
31.209,15:14:39.209,-10.176758,0.888672,0.118164,0.005127,0.081787,-0.163818,0.,0.,0.,2.498535,-0.098145,-0.003906,0.234375,223,286,263,93
31.309,15:14:39.309,-9.770508,0.189453,0.678711,0.229736,0.144531,-0.049805,0.,0.,0.,2.524902,-0.099854,0.020264,0.234375,224,286,263,93
31.409,15:14:39.409,-9.770508,0.189453,0.678711,0.229736,0.144531,-0.049805,0.,0.,0.,2.524902,-0.099854,0.020264,0.234375,224,286,263,93
31.509,15:14:39.509,-9.55957,1.515625,0.118164,-0.320312,-0.141357,-0.373535,0.,0.,0.,2.51709,-0.117676,0.015625,0.234375,224,286,262,93
31.609,15:14:39.609,-9.617188,0.379883,-0.678711,0.258545,0.163818,-0.070068,0.,0.,0.,2.527588,-0.113281,0.003662,0.234375,225,286,262,93
31.709,15:14:39.709,-9.454102,-0.204102,0.426758,0.176514,0.163818,-0.075439,0.,0.,0.,2.53833,-0.104736,0.041992,0.234375,225,286,261,93
31.809,15:14:39.809,-9.147461,0.62207,1.035156,-0.279785,-0.018066,0.010498,0.,0.,0.,2.539551,-0.11499,0.050781,0.234375,227,286,261,64
31.909,15:14:39.909,-9.147461,0.62207,1.035156,-0.279785,-0.018066,0.010498,0.,0.,0.,2.539551,-0.11499,0.050781,0.234375,227,286,261,64
32.009,15:14:40.009,-9.373047,0.964844,-0.204102,-0.468018,-0.031738,0.455322,0.,0.,0.,2.48999,-0.102051,-0.017334,0.234375,227,286,260,21
32.109,15:14:40.109,-9.373047,0.964844,-0.204102,-0.468018,-0.031738,0.455322,0.,0.,0.,2.48999,-0.102051,-0.017334,0.234375,227,286,260,21
32.209,15:14:40.209,-9.879883,0.427734,-0.179688,-1.082275,0.010498,0.261719,0.,0.,0.,2.345215,-0.049316,-0.054443,0.234375,228,286,259,23
32.309,15:14:40.309,-9.583008,0.855469,-0.393555,-1.245117,0.321289,0.010498,0.,0.,0.,2.259033,-0.037842,-0.052002,0.234375,236,286,257,23
32.409,15:14:40.409,-9.104492,0.436523,0.18457,-2.038818,-0.019043,-0.052002,0.,0.,0.,2.091553,-0.023193,-0.039307,0.234375,249,286,256,23
32.509,15:14:40.509,-9.544922,-0.208984,0.469727,-1.39624,0.243652,-0.077637,0.,0.,0.,1.914551,-0.012695,-0.030273,0.234375,249,285,253,23
32.609,15:14:40.609,-9.463867,0.179688,0.668945,-1.81543,0.63208,-0.04248,0.,0.,0.,1.78125,-0.020508,0.009277,0.234375,251,285,219,23
32.709,15:14:40.709,-10.737305,1.544922,1.257812,-1.598389,0.21582,0.120117,0.,0.,0.,1.395752,-0.019531,0.093018,0.234375,284,191,85,23
32.809,15:14:40.809,-10.737305,1.544922,1.257812,-1.598389,0.21582,0.120117,0.,0.,0.,1.395752,-0.019531,0.093018,0.234375,284,191,85,23
32.909,15:14:40.909,-10.397461,1.202148,0.916016,-1.268311,-0.076416,0.033936,0.,0.,0.,1.272217,-0.002441,0.089111,0.234375,284,180,81,23
33.009,15:14:41.009,-10.521484,0.583984,-0.080078,-0.885254,-0.724609,-0.345703,0.,0.,0.,1.172607,-0.001709,0.06543,0.234375,284,217,79,21
33.109,15:14:41.109,-9.300781,-0.02832,-0.194336,-1.35791,-1.062012,-0.135986,0.,0.,0.,1.060791,-0.00293,0.015625,0.234375,258,231,76,21
33.209,15:14:41.209,-9.094727,0.194336,-1.167969,-1.334473,-0.233887,0.415039,0.,0.,0.,0.911621,0.006592,-0.042969,0.234375,242,236,73,22
33.309,15:14:41.309,-9.765625,0.275391,-1.785156,-0.895996,0.027588,0.404297,0.,0.,0.,0.827393,0.026123,-0.077148,0.234375,202,240,70,23
33.409,15:14:41.409,-9.693359,0.02832,-0.806641,-0.820312,-0.522461,-0.209473,0.,0.,0.,0.771973,0.046387,-0.101562,0.234375,176,246,67,26
33.509,15:14:41.509,-9.717773,-0.736328,-1.914062,-0.834229,-0.38623,-0.028564,0.,0.,0.,0.667236,0.075928,-0.150146,0.234375,172,254,62,29
33.609,15:14:41.609,-9.717773,-0.736328,-1.914062,-0.834229,-0.38623,-0.028564,0.,0.,0.,0.667236,0.075928,-0.150146,0.234375,172,254,62,29
33.709,15:14:41.709,-9.856445,-0.959961,-1.21582,-1.402588,-0.070068,-0.293701,0.,0.,0.,0.403809,0.120361,-0.125732,0.234375,170,275,58,24
33.809,15:14:41.809,-9.856445,-0.959961,-1.21582,-1.402588,-0.070068,-0.293701,0.,0.,0.,0.403809,0.120361,-0.125732,0.234375,170,275,58,24
33.909,15:14:41.909,-9.741211,-0.665039,-1.139648,-1.346191,0.000977,-0.240479,0.,0.,0.,0.276367,0.113281,-0.122559,0.234375,95,275,66,24
34.009,15:14:42.009,-11.047852,-0.46582,-1.31543,-1.283203,0.196777,-0.38623,0.,0.,0.,0.138184,0.110107,-0.118652,0.234375,45,275,130,24
34.109,15:14:42.109,-9.665039,-0.831055,-0.512695,-1.213135,0.11792,-0.637451,0.,0.,0.,0.0271,0.075195,-0.072021,0.234375,38,275,226,25
34.209,15:14:42.209,-8.975586,-0.280273,-0.826172,-1.564209,0.320312,-0.413818,0.,0.,0.,-0.098633,0.042725,-0.051025,0.234375,34,275,226,25
34.309,15:14:42.309,-9.358398,0.265625,-0.431641,-1.489746,0.422363,0.0979,0.,0.,0.,-0.249756,0.042969,-0.011963,0.6875,29,265,226,26
34.409,15:14:42.409,-10.133789,0.232422,-0.275391,-1.772949,0.859863,0.330811,0.,0.,0.,-0.393555,0.076172,0.060303,1.296875,26,251,226,25
34.509,15:14:42.509,-10.133789,0.232422,-0.275391,-1.772949,0.859863,0.330811,0.,0.,0.,-0.393555,0.076172,0.060303,1.296875,26,251,226,25
34.609,15:14:42.609,-9.181641,-0.598633,-1.111328,0.883057,0.154297,-1.213135,0.,0.,0.,-0.653809,-0.151367,0.092285,1.296875,31,45,226,60
34.709,15:14:42.709,-9.181641,-0.598633,-1.111328,0.883057,0.154297,-1.213135,0.,0.,0.,-0.653809,-0.151367,0.092285,1.296875,31,45,226,60
34.809,15:14:42.809,-8.745117,-0.056641,-0.313477,1.235352,0.217041,-0.467041,0.,0.,0.,-0.554199,-0.234375,0.150879,0.492188,33,62,226,171
34.909,15:14:42.909,-9.37793,0.384766,-0.370117,0.687256,-0.86499,0.925781,0.,0.,0.,-0.438232,-0.22168,0.128174,0.230469,35,62,226,171
35.009,15:14:43.009,-10.454102,-0.802734,-0.645508,-0.443604,-1.186523,2.023926,0.,0.,0.,-0.407471,-0.017578,0.029053,0.375,38,62,226,63
35.109,15:14:43.109,-9.736328,-1.654297,-1.167969,0.454346,-0.873535,-0.212646,0.,0.,0.,-0.431396,0.088379,-0.070557,1.296875,47,48,226,27
35.209,15:14:43.209,-9.569336,-1.045898,-1.74707,2.473145,-0.45752,-0.270264,0.,0.,0.,-0.253418,0.022705,-0.146973,1.21875,65,29,146,27
35.309,15:14:43.309,-9.765625,-0.84082,-0.835938,1.448242,-0.630859,-0.332031,0.,0.,0.,-0.026367,-0.026367,-0.201172,1.179688,111,36,27,28
35.409,15:14:43.409,-7.606445,-0.041992,-0.441406,0.985352,0.700195,-0.851318,0.,0.,0.,0.064453,-0.138184,-0.16626,1.1875,127,42,28,28
35.509,15:14:43.509,-7.606445,-0.041992,-0.441406,0.985352,0.700195,-0.851318,0.,0.,0.,0.064453,-0.138184,-0.16626,1.1875,127,42,28,28
35.609,15:14:43.609,-10.938477,0.208984,2.212891,1.890869,0.821533,0.141357,0.,0.,0.,1.05835,0.221436,0.202881,0.804688,143,39,72,33
35.709,15:14:43.709,-10.938477,0.208984,2.212891,1.890869,0.821533,0.141357,0.,0.,0.,1.05835,0.221436,0.202881,0.804688,143,39,72,33
35.809,15:14:43.809,-11.915039,-0.327148,3.267578,-0.145752,-2.529541,-2.710449,0.,0.,0.,1.323242,-0.096436,0.03418,0.707031,204,38,177,41
35.909,15:14:43.909,-7.625,1.611328,-0.141602,3.489502,2.098389,1.560059,0.,0.,0.,1.540527,-0.261475,0.010498,0.703125,176,49,269,45
36.009,15:14:44.009,-6.47168,0.323242,2.597656,3.099854,1.241699,0.21582,0.,0.,0.,1.858154,-0.12915,0.270752,0.65625,173,58,293,44
36.109,15:14:44.109,-11.273438,1.168945,1.31543,1.716553,0.689453,0.17334,0.,0.,0.,2.504639,-0.113525,0.289062,0.449219,99,48,220,129
36.209,15:14:44.209,-11.273438,1.168945,1.31543,1.716553,0.689453,0.17334,0.,0.,0.,2.504639,-0.113525,0.289062,0.449219,99,48,220,129
36.309,15:14:44.309,-10.445312,0.213867,1.942383,1.085449,0.038086,-0.560791,0.,0.,0.,2.643311,-0.076904,0.344971,0.347656,89,45,174,186
36.409,15:14:44.409,-10.445312,0.213867,1.942383,1.085449,0.038086,-0.560791,0.,0.,0.,2.643311,-0.076904,0.344971,0.347656,89,45,174,186
36.509,15:14:44.509,-10.445312,0.213867,1.942383,1.085449,0.038086,-0.560791,0.,0.,0.,2.643311,-0.076904,0.344971,0.347656,89,45,174,186
36.609,15:14:44.609,-10.445312,0.213867,1.942383,1.085449,0.038086,-0.560791,0.,0.,0.,2.643311,-0.076904,0.344971,0.347656,89,45,174,186
36.709,15:14:44.709,-11.97168,2.125,1.448242,0.246826,-0.637451,-1.145996,0.,0.,0.,2.804199,-0.218994,0.198975,0.21875,98,48,158,273
36.809,15:14:44.809,-11.97168,2.125,1.448242,0.246826,-0.637451,-1.145996,0.,0.,0.,2.804199,-0.218994,0.198975,0.21875,98,48,158,273
36.909,15:14:44.909,-10.392578,0.18457,1.476562,0.05957,-0.095703,-0.17749,0.,0.,0.,2.838623,-0.254395,0.179932,0.21875,98,50,154,273
37.009,15:14:45.009,-10.392578,0.18457,1.476562,0.05957,-0.095703,-0.17749,0.,0.,0.,2.838623,-0.254395,0.179932,0.21875,98,50,154,273
37.109,15:14:45.109,-10.392578,0.18457,1.476562,0.05957,-0.095703,-0.17749,0.,0.,0.,2.838623,-0.254395,0.179932,0.21875,98,50,154,273
37.209,15:14:45.209,-9.544922,1.292969,2.022461,-0.046631,0.080811,0.289307,0.,0.,0.,2.842773,-0.182129,0.223145,0.21875,99,43,149,298
37.309,15:14:45.309,-8.980469,1.087891,1.738281,-0.261719,0.310547,0.104248,0.,0.,0.,2.830566,-0.158691,0.236816,0.21875,99,43,148,297
37.409,15:14:45.409,-8.137695,0.512695,1.624023,0.313721,-0.759766,0.420166,0.,0.,0.,2.828857,-0.132324,0.260986,0.21875,101,43,147,297
37.509,15:14:45.509,-9.526367,0.398438,1.914062,0.279785,-0.340332,0.220215,0.,0.,0.,2.932373,-0.086182,0.165283,0.234375,105,44,127,296
37.609,15:14:45.609,-9.013672,0.579102,1.15332,0.005127,0.195801,0.222412,0.,0.,0.,2.929688,-0.064453,0.148193,0.253906,104,47,70,296
37.709,15:14:45.709,-9.013672,0.579102,1.15332,0.005127,0.195801,0.222412,0.,0.,0.,2.929688,-0.064453,0.148193,0.253906,104,47,70,296
37.809,15:14:45.809,-9.569336,-0.34668,-0.811523,-0.332031,0.213867,0.370117,0.,0.,0.,2.949463,-0.056641,0.07373,0.253906,101,58,50,178
37.909,15:14:45.909,-9.569336,-0.34668,-0.811523,-0.332031,0.213867,0.370117,0.,0.,0.,2.949463,-0.056641,0.07373,0.253906,101,58,50,178
38.009,15:14:46.009,-8.118164,5.295898,-2.806641,-1.0896,0.145752,0.384033,0.,0.,0.,2.955322,-0.05957,0.011963,0.253906,100,57,51,103
38.109,15:14:46.109,-9.333984,-0.12793,0.275391,-0.007324,-0.29248,-0.304199,0.,0.,0.,2.956787,-0.042236,0.026123,0.253906,100,57,54,101
38.209,15:14:46.209,-9.770508,0.474609,0.041992,-0.011475,0.072266,-0.005127,0.,0.,0.,2.954346,-0.044922,0.022705,0.253906,100,58,75,101
38.309,15:14:46.309,-9.770508,0.474609,0.041992,-0.011475,0.072266,-0.005127,0.,0.,0.,2.954346,-0.044922,0.022705,0.253906,100,58,75,101
38.409,15:14:46.409,-9.770508,0.474609,0.041992,-0.011475,0.072266,-0.005127,0.,0.,0.,2.954346,-0.044922,0.022705,0.253906,100,58,75,101
38.509,15:14:46.509,-9.813477,0.041992,-0.037109,-0.011475,0.001953,-0.023193,0.,0.,0.,2.952881,-0.042969,0.021729,0.253906,100,57,77,216
38.609,15:14:46.609,-9.813477,0.041992,-0.037109,-0.011475,0.001953,-0.023193,0.,0.,0.,2.952881,-0.042969,0.021729,0.253906,100,57,77,216
38.709,15:14:46.709,-9.72168,0.227539,0.051758,-0.014893,0.008301,-0.026367,0.,0.,0.,2.951416,-0.043945,0.020996,0.253906,96,60,77,101
38.809,15:14:46.809,-9.78418,0.080078,0.013672,-0.025391,0.015869,-0.039307,0.,0.,0.,2.950439,-0.043701,0.020996,0.253906,96,61,77,101
38.909,15:14:46.909,-9.78418,0.080078,0.013672,-0.025391,0.015869,-0.039307,0.,0.,0.,2.950439,-0.043701,0.020996,0.253906,96,61,77,101
39.009,15:14:47.009,-9.736328,0.179688,-0.070312,-0.009521,0.011475,-0.024414,0.,0.,0.,2.94751,-0.043701,0.019775,0.253906,95,48,68,100
39.109,15:14:47.109,-9.736328,0.179688,-0.070312,-0.009521,0.011475,-0.024414,0.,0.,0.,2.94751,-0.043701,0.019775,0.253906,95,48,68,100
39.209,15:14:47.209,-9.789062,0.232422,0.070312,-0.011475,0.014893,-0.024414,0.,0.,0.,2.947021,-0.043701,0.019531,0.253906,95,48,68,100
39.309,15:14:47.309,-9.789062,0.232422,0.070312,-0.011475,0.014893,-0.024414,0.,0.,0.,2.947021,-0.043701,0.019531,0.253906,95,48,68,100
39.409,15:14:47.409,-9.841797,0.123047,0.003906,-0.014893,0.018066,-0.022217,0.,0.,0.,2.946533,-0.043701,0.019287,0.253906,95,46,68,100
39.509,15:14:47.509,-9.841797,0.123047,0.003906,-0.014893,0.018066,-0.022217,0.,0.,0.,2.946533,-0.043701,0.019287,0.253906,95,46,68,100
39.609,15:14:47.609,-9.688477,0.142578,0.033203,-0.012695,0.014893,-0.028564,0.,0.,0.,2.945068,-0.043945,0.018555,0.253906,98,45,68,100
39.709,15:14:47.709,-9.688477,0.142578,0.033203,-0.012695,0.014893,-0.028564,0.,0.,0.,2.945068,-0.043945,0.018555,0.253906,98,45,68,100
39.809,15:14:47.809,-9.72168,0.217773,0.070312,-0.010498,0.014893,-0.02124,0.,0.,0.,2.943359,-0.043945,0.017822,0.253906,98,133,67,100
39.909,15:14:47.909,-9.72168,0.217773,0.070312,-0.010498,0.014893,-0.02124,0.,0.,0.,2.943359,-0.043945,0.017822,0.253906,98,133,67,100
40.009,15:14:48.009,-9.789062,0.175781,-0.023438,-0.011475,0.014893,-0.022217,0.,0.,0.,2.942627,-0.043945,0.017334,0.253906,99,131,68,100
40.109,15:14:48.109,-9.789062,0.175781,-0.023438,-0.011475,0.014893,-0.022217,0.,0.,0.,2.942627,-0.043945,0.017334,0.253906,99,131,68,100
40.209,15:14:48.209,-9.827148,0.113281,-0.061523,-0.011475,0.011475,-0.023193,0.,0.,0.,2.942139,-0.044189,0.01709,0.253906,99,131,68,100
40.309,15:14:48.309,-9.827148,0.113281,-0.061523,-0.011475,0.011475,-0.023193,0.,0.,0.,2.942139,-0.044189,0.01709,0.253906,99,131,68,100
40.409,15:14:48.409,-9.693359,0.123047,0.051758,-0.011475,0.010498,-0.024414,0.,0.,0.,2.940674,-0.044189,0.016602,0.253906,100,131,68,100
40.509,15:14:48.509,-9.717773,0.12793,0.018555,-0.009521,0.015869,-0.025391,0.,0.,0.,2.94043,-0.044189,0.016357,0.253906,100,132,68,100
40.609,15:14:48.609,-9.717773,0.12793,0.018555,-0.009521,0.015869,-0.025391,0.,0.,0.,2.94043,-0.044189,0.016357,0.253906,100,132,68,100
40.709,15:14:48.709,-9.870117,0.151367,0.013672,-0.011475,0.013672,-0.026367,0.,0.,0.,2.938477,-0.044189,0.015381,0.253906,100,134,68,100
40.809,15:14:48.809,-9.870117,0.151367,0.013672,-0.011475,0.013672,-0.026367,0.,0.,0.,2.938477,-0.044189,0.015381,0.253906,100,134,68,100
40.909,15:14:48.909,-9.870117,0.151367,0.013672,-0.011475,0.013672,-0.026367,0.,0.,0.,2.938477,-0.044189,0.015381,0.253906,100,134,68,100
41.009,15:14:49.009,-9.870117,0.151367,0.013672,-0.011475,0.013672,-0.026367,0.,0.,0.,2.938477,-0.044189,0.015381,0.253906,100,134,68,100
41.109,15:14:49.109,-9.870117,0.151367,0.013672,-0.011475,0.013672,-0.026367,0.,0.,0.,2.938477,-0.044189,0.015381,0.253906,100,134,68,100
41.209,15:14:49.209,-9.770508,0.161133,0.02832,-0.013672,0.014893,-0.026367,0.,0.,0.,2.935547,-0.044189,0.014404,0.253906,100,138,68,100
41.309,15:14:49.309,-9.712891,0.084961,0.018555,-0.008301,0.014893,-0.024414,0.,0.,0.,2.935303,-0.044434,0.01416,0.253906,101,137,68,100
41.409,15:14:49.409,-9.712891,0.084961,0.018555,-0.008301,0.014893,-0.024414,0.,0.,0.,2.935303,-0.044434,0.01416,0.253906,101,137,68,100
41.509,15:14:49.509,-9.793945,0.222656,0.033203,-0.011475,0.011475,-0.024414,0.,0.,0.,2.933838,-0.044189,0.013672,0.253906,102,139,68,100
41.609,15:14:49.609,-9.793945,0.222656,0.033203,-0.011475,0.011475,-0.024414,0.,0.,0.,2.933838,-0.044189,0.013672,0.253906,102,139,68,100
41.709,15:14:49.709,-9.750977,0.208984,0.023438,-0.011475,0.015869,-0.025391,0.,0.,0.,2.933594,-0.044434,0.013428,0.253906,103,142,68,100
41.809,15:14:49.809,-9.750977,0.208984,0.023438,-0.011475,0.015869,-0.025391,0.,0.,0.,2.933594,-0.044434,0.013428,0.253906,103,142,68,100
41.909,15:14:49.909,-9.779297,0.033203,-0.02832,-0.011475,0.015869,-0.025391,0.,0.,0.,2.932617,-0.044189,0.013184,0.253906,103,142,68,100
42.009,15:14:50.009,-9.841797,0.175781,0.041992,-0.010498,0.014893,-0.025391,0.,0.,0.,2.932129,-0.044189,0.012939,0.253906,103,142,68,100
42.109,15:14:50.109,-9.841797,0.175781,0.041992,-0.010498,0.014893,-0.025391,0.,0.,0.,2.932129,-0.044189,0.012939,0.253906,103,142,68,100
42.209,15:14:50.209,-9.736328,0.113281,0.080078,-0.012695,0.015869,-0.027588,0.,0.,0.,2.931152,-0.044189,0.012695,0.253906,104,146,68,100
42.309,15:14:50.309,-9.736328,0.113281,0.080078,-0.012695,0.015869,-0.027588,0.,0.,0.,2.931152,-0.044189,0.012695,0.253906,104,146,68,100
42.409,15:14:50.409,-9.774414,0.175781,0.013672,-0.012695,0.012695,-0.026367,0.,0.,0.,2.930664,-0.044189,0.012695,0.253906,104,146,68,100
42.509,15:14:50.509,-9.774414,0.175781,0.013672,-0.012695,0.012695,-0.026367,0.,0.,0.,2.930664,-0.044189,0.012695,0.253906,104,146,68,100
42.609,15:14:50.609,-9.765625,0.151367,0.037109,-0.014893,0.016846,-0.027588,0.,0.,0.,2.93042,-0.044189,0.012451,0.253906,104,145,68,100
42.709,15:14:50.709,-9.765625,0.151367,0.037109,-0.014893,0.016846,-0.027588,0.,0.,0.,2.93042,-0.044189,0.012451,0.253906,104,145,68,100
42.809,15:14:50.809,-9.750977,0.094727,0.018555,-0.010498,0.016846,-0.027588,0.,0.,0.,2.929688,-0.044189,0.012207,0.253906,105,142,68,100
42.909,15:14:50.909,-9.750977,0.094727,0.018555,-0.010498,0.016846,-0.027588,0.,0.,0.,2.929688,-0.044189,0.012207,0.253906,105,142,68,100
43.009,15:14:51.009,-9.808594,0.179688,0.041992,-0.011475,0.013672,-0.024414,0.,0.,0.,2.929443,-0.044189,0.011963,0.253906,105,142,68,100
43.109,15:14:51.109,-9.808594,0.179688,0.041992,-0.011475,0.013672,-0.024414,0.,0.,0.,2.929443,-0.044189,0.011963,0.253906,105,142,68,100
43.209,15:14:51.209,-9.703125,0.175781,0.080078,-0.011475,0.013672,-0.023193,0.,0.,0.,2.927734,-0.044189,0.011719,0.253906,105,141,67,100
43.309,15:14:51.309,-9.708008,0.132812,0.013672,-0.009521,0.012695,-0.023193,0.,0.,0.,2.92749,-0.044189,0.011719,0.253906,106,140,67,100
43.409,15:14:51.409,-9.779297,0.237305,0.008789,-0.011475,0.015869,-0.024414,0.,0.,0.,2.92627,-0.044189,0.01123,0.253906,105,47,68,100
43.509,15:14:51.509,-9.750977,0.179688,-0.008789,-0.011475,0.018066,-0.027588,0.,0.,0.,2.925537,-0.044189,0.01123,0.253906,105,48,68,100
43.609,15:14:51.609,-9.750977,0.179688,-0.008789,-0.011475,0.018066,-0.027588,0.,0.,0.,2.925537,-0.044189,0.01123,0.253906,105,48,68,100
43.709,15:14:51.709,-9.650391,0.170898,0.02832,-0.009521,0.015869,-0.025391,0.,0.,0.,2.924805,-0.043945,0.010986,0.253906,106,140,68,100
43.809,15:14:51.809,-9.650391,0.170898,0.02832,-0.009521,0.015869,-0.025391,0.,0.,0.,2.924805,-0.043945,0.010986,0.253906,106,140,68,100
43.909,15:14:51.909,-9.870117,0.237305,-0.018555,-0.010498,0.016846,-0.022217,0.,0.,0.,2.924561,-0.043945,0.010742,0.253906,107,138,68,100
44.009,15:14:52.009,-9.798828,0.199219,-0.018555,-0.013672,0.013672,-0.025391,0.,0.,0.,2.923584,-0.043945,0.010742,0.253906,105,100,68,100
44.109,15:14:52.109,-9.832031,0.142578,-0.003906,-0.011475,0.012695,-0.025391,0.,0.,0.,2.923096,-0.043945,0.010498,0.253906,105,46,68,100
44.209,15:14:52.209,-9.798828,0.066406,0.018555,-0.010498,0.012695,-0.024414,0.,0.,0.,2.922852,-0.043945,0.010498,0.253906,105,47,68,100
44.309,15:14:52.309,-9.798828,0.066406,0.018555,-0.010498,0.012695,-0.024414,0.,0.,0.,2.922852,-0.043945,0.010498,0.253906,105,47,68,100
44.409,15:14:52.409,-9.72168,0.208984,0.018555,-0.011475,0.015869,-0.025391,0.,0.,0.,2.922119,-0.043945,0.010254,0.253906,105,100,68,100
44.509,15:14:52.509,-9.72168,0.208984,0.018555,-0.011475,0.015869,-0.025391,0.,0.,0.,2.922119,-0.043945,0.010254,0.253906,105,100,68,100
44.609,15:14:52.609,-9.813477,0.175781,0.084961,-0.007324,0.013672,-0.025391,0.,0.,0.,2.921875,-0.043945,0.01001,0.253906,104,136,67,100
44.709,15:14:52.709,-9.813477,0.175781,0.084961,-0.007324,0.013672,-0.025391,0.,0.,0.,2.921875,-0.043945,0.01001,0.253906,104,136,67,100
44.809,15:14:52.809,-9.813477,0.175781,0.084961,-0.007324,0.013672,-0.025391,0.,0.,0.,2.921875,-0.043945,0.01001,0.253906,104,136,67,100
44.909,15:14:52.909,-9.746094,0.118164,-0.018555,-0.010498,0.011475,-0.025391,0.,0.,0.,2.92041,-0.043945,0.01001,0.253906,103,83,68,100
45.009,15:14:53.009,-9.746094,0.118164,-0.018555,-0.010498,0.011475,-0.025391,0.,0.,0.,2.92041,-0.043945,0.01001,0.253906,103,83,68,100
45.109,15:14:53.109,-9.746094,0.118164,-0.018555,-0.010498,0.011475,-0.025391,0.,0.,0.,2.92041,-0.043945,0.01001,0.253906,103,83,68,100
45.209,15:14:53.209,-9.708008,0.099609,0.084961,-0.012695,0.016846,-0.026367,0.,0.,0.,2.919434,-0.043945,0.009766,0.253906,101,47,67,100
45.309,15:14:53.309,-9.708008,0.099609,0.084961,-0.012695,0.016846,-0.026367,0.,0.,0.,2.919434,-0.043945,0.009766,0.253906,101,47,67,100
45.409,15:14:53.409,-9.779297,0.123047,0.046875,-0.011475,0.015869,-0.025391,0.,0.,0.,2.918945,-0.043945,0.009766,0.253906,101,46,68,100
45.509,15:14:53.509,-9.779297,0.123047,0.046875,-0.011475,0.015869,-0.025391,0.,0.,0.,2.918945,-0.043945,0.009766,0.253906,101,46,68,100
45.609,15:14:53.609,-9.779297,0.123047,0.046875,-0.011475,0.015869,-0.025391,0.,0.,0.,2.918945,-0.043945,0.009766,0.253906,101,46,68,100
45.709,15:14:53.709,-9.779297,0.123047,0.046875,-0.011475,0.015869,-0.025391,0.,0.,0.,2.918945,-0.043945,0.009766,0.253906,101,46,68,100
45.809,15:14:53.809,-9.779297,0.123047,0.046875,-0.011475,0.015869,-0.025391,0.,0.,0.,2.918945,-0.043945,0.009766,0.253906,101,46,68,100
45.909,15:14:53.909,-9.779297,0.123047,0.046875,-0.011475,0.015869,-0.025391,0.,0.,0.,2.918945,-0.043945,0.009766,0.253906,101,46,68,100
46.009,15:14:54.009,-9.78418,0.108398,-0.008789,-0.012695,0.012695,-0.023193,0.,0.,0.,2.915283,-0.043701,0.009277,0.253906,100,46,68,100
46.109,15:14:54.109,-9.827148,0.099609,0.018555,-0.010498,0.014893,-0.026367,0.,0.,0.,2.915039,-0.043701,0.009033,0.253906,100,46,68,100
46.209,15:14:54.209,-9.827148,0.099609,0.018555,-0.010498,0.014893,-0.026367,0.,0.,0.,2.915039,-0.043701,0.009033,0.253906,100,46,68,100
46.309,15:14:54.309,-9.693359,0.179688,0.023438,-0.011475,0.013672,-0.026367,0.,0.,0.,2.914062,-0.043701,0.009033,0.253906,100,46,68,100
46.409,15:14:54.409,-9.693359,0.179688,0.023438,-0.011475,0.013672,-0.026367,0.,0.,0.,2.914062,-0.043701,0.009033,0.253906,100,46,68,100
46.509,15:14:54.509,-9.774414,0.15625,0.008789,-0.012695,0.013672,-0.024414,0.,0.,0.,2.913818,-0.043457,0.009033,0.253906,100,46,68,100
46.609,15:14:54.609,-9.774414,0.15625,0.008789,-0.012695,0.013672,-0.024414,0.,0.,0.,2.913818,-0.043457,0.009033,0.253906,100,46,68,100
46.709,15:14:54.709,-9.861328,0.118164,-0.013672,-0.009521,0.013672,-0.028564,0.,0.,0.,2.913574,-0.043457,0.009033,0.253906,100,46,68,100
46.809,15:14:54.809,-9.861328,0.118164,-0.013672,-0.009521,0.013672,-0.028564,0.,0.,0.,2.913574,-0.043457,0.009033,0.253906,100,46,68,100
46.909,15:14:54.909,-9.750977,0.094727,0.008789,-0.010498,0.014893,-0.027588,0.,0.,0.,2.912354,-0.043457,0.008789,0.253906,100,47,68,100
47.009,15:14:55.009,-9.808594,0.18457,0.041992,-0.010498,0.012695,-0.026367,0.,0.,0.,2.912109,-0.043457,0.008789,0.253906,100,47,68,100
47.109,15:14:55.109,-9.703125,0.118164,0.02832,-0.010498,0.012695,-0.025391,0.,0.,0.,2.911865,-0.043457,0.008789,0.253906,100,47,68,100
47.209,15:14:55.209,-9.836914,0.189453,0.008789,-0.008301,0.013672,-0.026367,0.,0.,0.,2.911377,-0.043213,0.008789,0.253906,100,46,68,100
47.309,15:14:55.309,-9.818359,0.189453,0.018555,-0.011475,0.013672,-0.025391,0.,0.,0.,2.911133,-0.043213,0.008789,0.253906,100,46,68,100
47.409,15:14:55.409,-9.708008,0.080078,-0.008789,-0.011475,0.009521,-0.026367,0.,0.,0.,2.910156,-0.043213,0.008789,0.253906,101,46,68,100
47.509,15:14:55.509,-9.708008,0.080078,-0.008789,-0.011475,0.009521,-0.026367,0.,0.,0.,2.910156,-0.043213,0.008789,0.253906,101,46,68,100
47.609,15:14:55.609,-9.841797,0.166016,0.066406,-0.011475,0.012695,-0.024414,0.,0.,0.,2.909912,-0.043213,0.008789,0.253906,101,46,68,100
47.709,15:14:55.709,-9.841797,0.166016,0.066406,-0.011475,0.012695,-0.024414,0.,0.,0.,2.909912,-0.043213,0.008789,0.253906,101,46,68,100
47.809,15:14:55.809,-9.813477,0.170898,0.,-0.011475,0.016846,-0.024414,0.,0.,0.,2.908936,-0.043213,0.008789,0.253906,101,46,68,100
47.909,15:14:55.909,-9.813477,0.170898,0.,-0.011475,0.016846,-0.024414,0.,0.,0.,2.908936,-0.043213,0.008789,0.253906,101,46,68,100
48.009,15:14:56.009,-9.750977,0.18457,0.018555,-0.011475,0.010498,-0.024414,0.,0.,0.,2.907959,-0.042969,0.008789,0.253906,101,46,68,100
48.109,15:14:56.109,-9.750977,0.18457,0.018555,-0.011475,0.010498,-0.024414,0.,0.,0.,2.907959,-0.042969,0.008789,0.253906,101,46,68,100
48.209,15:14:56.209,-9.750977,0.056641,0.008789,-0.009521,0.018066,-0.025391,0.,0.,0.,2.907715,-0.042969,0.008545,0.253906,101,46,68,100
48.309,15:14:56.309,-9.750977,0.056641,0.008789,-0.009521,0.018066,-0.025391,0.,0.,0.,2.907715,-0.042969,0.008545,0.253906,101,46,68,100
48.409,15:14:56.409,-9.813477,0.113281,0.037109,-0.010498,0.014893,-0.027588,0.,0.,0.,2.907227,-0.042969,0.008545,0.253906,101,46,68,100
48.509,15:14:56.509,-9.813477,0.113281,0.037109,-0.010498,0.014893,-0.027588,0.,0.,0.,2.907227,-0.042969,0.008545,0.253906,101,46,68,100
48.609,15:14:56.609,-9.708008,0.108398,0.118164,-0.011475,0.013672,-0.025391,0.,0.,0.,2.906738,-0.042969,0.008545,0.253906,101,46,68,100
48.709,15:14:56.709,-9.708008,0.108398,0.118164,-0.011475,0.013672,-0.025391,0.,0.,0.,2.906738,-0.042969,0.008545,0.253906,101,46,68,100
48.809,15:14:56.809,-9.736328,0.217773,0.046875,-0.011475,0.013672,-0.025391,0.,0.,0.,2.906494,-0.042725,0.008789,0.253906,101,46,68,100
48.909,15:14:56.909,-9.736328,0.217773,0.046875,-0.011475,0.013672,-0.025391,0.,0.,0.,2.906494,-0.042725,0.008789,0.253906,101,46,68,100
49.009,15:14:57.009,-9.755859,0.089844,0.013672,-0.011475,0.013672,-0.025391,0.,0.,0.,2.90625,-0.042725,0.008789,0.253906,101,46,67,100
49.109,15:14:57.109,-9.755859,0.089844,0.013672,-0.011475,0.013672,-0.025391,0.,0.,0.,2.90625,-0.042725,0.008789,0.253906,101,46,67,100
49.209,15:14:57.209,-9.760742,0.113281,0.008789,-0.008301,0.012695,-0.026367,0.,0.,0.,2.906006,-0.042725,0.008789,0.253906,101,46,67,100
49.309,15:14:57.309,-9.703125,0.194336,0.013672,-0.011475,0.012695,-0.028564,0.,0.,0.,2.905518,-0.042725,0.008789,0.253906,102,46,67,100
49.409,15:14:57.409,-9.673828,0.151367,0.033203,-0.011475,0.009521,-0.027588,0.,0.,0.,2.905273,-0.042725,0.008545,0.253906,102,46,68,100
49.509,15:14:57.509,-9.736328,0.18457,-0.023438,-0.010498,0.012695,-0.023193,0.,0.,0.,2.904785,-0.042725,0.008545,0.253906,102,46,68,100
49.609,15:14:57.609,-9.836914,0.137695,0.099609,-0.009521,0.014893,-0.024414,0.,0.,0.,2.904541,-0.04248,0.008545,0.253906,102,46,68,100
49.709,15:14:57.709,-9.78418,0.132812,-0.013672,-0.011475,0.016846,-0.026367,0.,0.,0.,2.904297,-0.04248,0.008545,0.253906,102,46,68,100
49.809,15:14:57.809,-9.765625,0.051758,0.166016,-0.003174,0.018066,-0.034912,0.,0.,0.,2.904297,-0.04248,0.008545,0.253906,102,46,68,100
49.909,15:14:57.909,-9.813477,0.34668,0.084961,-0.022217,0.052979,-0.060547,0.,0.,0.,2.903564,-0.04248,0.009277,0.253906,102,46,67,100
50.009,15:14:58.009,-9.813477,0.34668,0.084961,-0.022217,0.052979,-0.060547,0.,0.,0.,2.903564,-0.04248,0.009277,0.253906,102,46,67,100
50.109,15:14:58.109,-8.49707,0.921875,-0.398438,0.029785,0.00415,-0.025391,0.,0.,0.,2.903809,-0.041992,0.009521,0.253906,102,46,67,100
50.209,15:14:58.209,-8.49707,0.921875,-0.398438,0.029785,0.00415,-0.025391,0.,0.,0.,2.903809,-0.041992,0.009521,0.253906,102,46,67,100
50.309,15:14:58.309,-10.454102,0.921875,0.336914,-0.022217,0.067871,-0.124512,0.,0.,0.,2.903564,-0.04248,0.009033,0.253906,102,46,68,100
50.409,15:14:58.409,-8.664062,-0.827148,-0.469727,-0.008301,0.024414,-0.023193,0.,0.,0.,2.90332,-0.042969,0.009277,0.253906,103,47,68,100
50.509,15:14:58.509,-10.928711,0.993164,0.431641,-0.025391,0.044678,-0.071289,0.,0.,0.,2.90332,-0.04248,0.009033,0.253906,103,46,68,100
50.609,15:14:58.609,-8.865234,-0.769531,-0.94043,-0.009521,-0.003174,-0.086182,0.,0.,0.,2.902832,-0.042725,0.009277,0.253906,103,46,68,100
50.709,15:14:58.709,-11.019531,0.071289,0.839844,-0.018066,-0.003174,-0.05957,0.,0.,0.,2.902832,-0.042236,0.008789,0.253906,103,46,68,100
50.809,15:14:58.809,-9.922852,-1.420898,-0.308594,-0.012695,0.052002,0.018066,0.,0.,0.,2.902344,-0.042236,0.009033,0.253906,103,46,68,101
50.909,15:14:58.909,-9.922852,-1.420898,-0.308594,-0.012695,0.052002,0.018066,0.,0.,0.,2.902344,-0.042236,0.009033,0.253906,103,46,68,101
51.009,15:14:59.009,-10.042969,0.921875,0.579102,-0.008301,-0.05957,0.027588,0.,0.,0.,2.902344,-0.041748,0.009033,0.253906,103,46,68,101
51.109,15:14:59.109,-10.042969,0.921875,0.579102,-0.008301,-0.05957,0.027588,0.,0.,0.,2.902344,-0.041748,0.009033,0.253906,103,46,68,101
51.209,15:14:59.209,-10.392578,-0.912109,0.217773,-0.013672,0.060547,-0.076416,0.,0.,0.,2.9021,-0.041992,0.009521,0.253906,103,46,67,101
51.309,15:14:59.309,-10.392578,-0.912109,0.217773,-0.013672,0.060547,-0.076416,0.,0.,0.,2.9021,-0.041992,0.009521,0.253906,103,46,67,101
51.409,15:14:59.409,-9.368164,-0.308594,-0.084961,-0.012695,-0.026367,0.107422,0.,0.,0.,2.901855,-0.04126,0.009521,0.253906,103,46,67,100
51.509,15:14:59.509,-9.368164,-0.308594,-0.084961,-0.012695,-0.026367,0.107422,0.,0.,0.,2.901855,-0.04126,0.009521,0.253906,103,46,67,100
51.609,15:14:59.609,-10.349609,0.764648,0.930664,-0.003174,0.083984,-0.046631,0.,0.,0.,2.901611,-0.041992,0.009521,0.253906,103,46,67,100
51.709,15:14:59.709,-10.349609,0.764648,0.930664,-0.003174,0.083984,-0.046631,0.,0.,0.,2.901611,-0.041992,0.009521,0.253906,103,46,67,100
51.809,15:14:59.809,-10.349609,0.764648,0.930664,-0.003174,0.083984,-0.046631,0.,0.,0.,2.901611,-0.041992,0.009521,0.253906,103,46,67,100
51.909,15:14:59.909,-9.128906,0.170898,0.212891,0.009521,0.089355,-0.001953,0.,0.,0.,2.901367,-0.040771,0.009277,0.253906,103,46,67,101
52.009,15:15:0.009,-10.110352,0.484375,-0.668945,-0.013672,0.039307,-0.011475,0.,0.,0.,2.901367,-0.040039,0.009766,0.253906,104,46,67,100
52.109,15:15:0.109,-10.110352,0.484375,-0.668945,-0.013672,0.039307,-0.011475,0.,0.,0.,2.901367,-0.040039,0.009766,0.253906,104,46,67,100
52.209,15:15:0.209,-8.908203,-0.655273,-0.298828,-0.025391,-0.034912,0.033936,0.,0.,0.,2.901123,-0.040771,0.009766,0.253906,104,64,67,100
52.309,15:15:0.309,-9.396484,-0.080078,0.693359,0.011475,0.070068,-0.016846,0.,0.,0.,2.900879,-0.040527,0.01001,0.253906,106,121,68,100
52.409,15:15:0.409,-10.0625,0.72168,-0.246094,-0.038086,-0.010498,-0.11377,0.,0.,0.,2.900146,-0.040527,0.01001,0.253906,106,121,68,101
52.509,15:15:0.509,-10.244141,0.779297,0.388672,-0.011475,-0.039307,-0.032959,0.,0.,0.,2.899902,-0.040039,0.009766,0.253906,106,64,67,100
52.609,15:15:0.609,-10.387695,0.708008,-0.783203,-0.02124,0.039307,-0.040283,0.,0.,0.,2.899902,-0.039551,0.01001,0.253906,105,46,67,100
52.709,15:15:0.709,-9.023438,-0.484375,-0.555664,-0.029785,-0.018066,0.,0.,0.,0.,2.899658,-0.039795,0.01001,0.253906,105,46,67,100
52.809,15:15:0.809,-9.338867,-0.408203,0.678711,0.013672,0.069092,-0.022217,0.,0.,0.,2.899658,-0.039307,0.010254,0.253906,104,46,67,100
52.909,15:15:0.909,-9.731445,0.12793,0.084961,-0.018066,0.013672,-0.103027,0.,0.,0.,2.89917,-0.039062,0.010254,0.253906,104,46,68,100
53.009,15:15:1.009,-9.731445,0.12793,0.084961,-0.018066,0.013672,-0.103027,0.,0.,0.,2.89917,-0.039062,0.010254,0.253906,104,46,68,100
53.109,15:15:1.109,-10.282227,0.665039,-0.474609,-0.015869,0.061523,0.008301,0.,0.,0.,2.898682,-0.039062,0.010498,0.253906,106,46,68,100
53.209,15:15:1.209,-8.568359,-0.204102,-0.99707,-0.034912,-0.019043,-0.005127,0.,0.,0.,2.898438,-0.039307,0.010498,0.253906,105,64,68,100
53.309,15:15:1.309,-9.755859,-0.398438,0.72168,0.010498,0.087158,-0.027588,0.,0.,0.,2.898438,-0.039551,0.010254,0.253906,105,121,68,100
53.409,15:15:1.409,-9.645508,0.422852,-0.037109,-0.02124,0.02124,-0.127686,0.,0.,0.,2.898193,-0.038818,0.010254,0.253906,104,121,68,100
53.509,15:15:1.509,-10.262695,0.631836,-0.12793,-0.014893,-0.066895,-0.05957,0.,0.,0.,2.898193,-0.038574,0.010254,0.253906,104,64,67,100
53.609,15:15:1.609,-10.162109,0.750977,-0.707031,-0.003174,0.046631,-0.025391,0.,0.,0.,2.897949,-0.03833,0.010986,0.253906,103,84,67,101
53.709,15:15:1.709,-8.616211,-0.151367,-0.835938,-0.022217,0.00415,-0.013672,0.,0.,0.,2.897949,-0.038086,0.010986,0.253906,103,141,67,100
53.809,15:15:1.809,-9.942383,-0.541016,1.129883,0.001953,0.077637,0.023193,0.,0.,0.,2.897705,-0.03833,0.010498,0.253906,103,103,68,100
53.909,15:15:1.909,-9.612305,0.926758,-0.436523,-0.019043,0.015869,-0.077637,0.,0.,0.,2.897705,-0.038574,0.010742,0.253906,103,46,68,100
54.009,15:15:2.009,-9.612305,0.926758,-0.436523,-0.019043,0.015869,-0.077637,0.,0.,0.,2.897705,-0.038574,0.010742,0.253906,103,46,68,100
54.109,15:15:2.109,-10.110352,0.731445,-0.630859,-0.000977,0.076416,0.022217,0.,0.,0.,2.897217,-0.03833,0.010986,0.253906,105,46,68,101
54.209,15:15:2.209,-8.606445,-0.460938,-0.370117,-0.018066,0.00415,-0.001953,0.,0.,0.,2.896729,-0.038818,0.010986,0.253906,103,46,68,101
54.309,15:15:2.309,-10.119141,-0.118164,1.267578,0.003174,0.110596,-0.009521,0.,0.,0.,2.896484,-0.03833,0.010986,0.253906,102,46,67,100
54.409,15:15:2.409,-9.540039,1.049805,-0.484375,-0.026367,-0.000977,-0.083984,0.,0.,0.,2.89624,-0.038086,0.010986,0.253906,102,46,67,100
54.509,15:15:2.509,-10.976562,0.617188,0.413086,0.001953,-0.018066,0.015869,0.,0.,0.,2.89624,-0.038086,0.010742,0.253906,102,46,67,100
54.609,15:15:2.609,-9.630859,0.013672,-0.179688,-0.025391,0.099854,0.023193,0.,0.,0.,2.895996,-0.037598,0.01123,0.253906,102,46,67,100
54.709,15:15:2.709,-8.827148,-0.936523,0.246094,-0.013672,0.000977,-0.024414,0.,0.,0.,2.895752,-0.03833,0.01123,0.253906,102,46,67,100
54.809,15:15:2.809,-10.493164,0.056641,1.144531,0.006348,0.056396,-0.032959,0.,0.,0.,2.895508,-0.038086,0.010986,0.253906,102,46,67,100
54.909,15:15:2.909,-9.808594,0.541016,-0.811523,-0.037109,-0.022217,-0.039307,0.,0.,0.,2.895508,-0.037598,0.01123,0.253906,102,46,67,100
55.009,15:15:3.009,-9.808594,0.541016,-0.811523,-0.037109,-0.022217,-0.039307,0.,0.,0.,2.895508,-0.037598,0.01123,0.253906,102,46,67,100
55.109,15:15:3.109,-8.908203,-0.46582,0.28418,-0.016846,0.093506,-0.011475,0.,0.,0.,2.895264,-0.037598,0.01123,0.253906,102,46,67,100
55.209,15:15:3.209,-9.851562,-0.213867,0.731445,-0.02124,-0.05957,-0.043457,0.,0.,0.,2.894775,-0.037842,0.010986,0.253906,102,46,67,100
55.309,15:15:3.309,-10.871094,0.456055,-0.018555,-0.000977,0.016846,0.001953,0.,0.,0.,2.894531,-0.037354,0.01123,0.253906,102,46,67,100
55.409,15:15:3.409,-8.673828,-0.12793,-1.044922,-0.009521,-0.043457,-0.016846,0.,0.,0.,2.894531,-0.037842,0.011475,0.253906,102,46,67,100
55.509,15:15:3.509,-9.630859,-0.736328,1.244141,0.003174,0.063721,-0.030762,0.,0.,0.,2.894287,-0.037842,0.011475,0.253906,102,47,67,100
55.609,15:15:3.609,-9.942383,0.194336,-0.089844,-0.011475,-0.074463,-0.02124,0.,0.,0.,2.893799,-0.036865,0.011719,0.253906,102,47,67,100
55.709,15:15:3.709,-9.942383,0.194336,-0.089844,-0.011475,-0.074463,-0.02124,0.,0.,0.,2.893799,-0.036865,0.011719,0.253906,102,47,67,100
55.809,15:15:3.809,-9.703125,-0.023438,-0.018555,-0.001953,0.054199,-0.052002,0.,0.,0.,2.893799,-0.037109,0.012207,0.253906,102,47,67,100
55.909,15:15:3.909,-9.492188,-0.831055,0.379883,-0.014893,-0.036133,-0.077637,0.,0.,0.,2.893555,-0.037109,0.011963,0.253906,102,47,67,101
56.009,15:15:4.009,-9.492188,-0.831055,0.379883,-0.014893,-0.036133,-0.077637,0.,0.,0.,2.893555,-0.037109,0.011963,0.253906,102,47,67,101
56.109,15:15:4.109,-9.952148,0.242188,-1.163086,-0.029785,-0.028564,-0.034912,0.,0.,0.,2.893311,-0.037109,0.012207,0.253906,102,138,67,100
56.209,15:15:4.209,-8.875,-0.341797,0.474609,0.003174,0.018066,0.007324,0.,0.,0.,2.892822,-0.036865,0.011963,0.253906,103,82,67,100
56.309,15:15:4.309,-10.660156,1.339844,-0.008789,-0.012695,0.007324,-0.089355,0.,0.,0.,2.892578,-0.037109,0.012207,0.253906,102,46,67,101
56.409,15:15:4.409,-10.057617,0.,-0.393555,-0.030762,-0.044678,0.013672,0.,0.,0.,2.892578,-0.036865,0.012207,0.253906,102,46,68,100
56.509,15:15:4.509,-8.754883,0.436523,-0.260742,0.012695,0.088135,0.033936,0.,0.,0.,2.892334,-0.036621,0.012451,0.253906,102,46,68,100
56.609,15:15:4.609,-10.287109,-0.389648,0.179688,-0.013672,0.022217,-0.067871,0.,0.,0.,2.892334,-0.036865,0.012451,0.253906,102,100,68,100
56.709,15:15:4.709,-9.617188,0.969727,-0.151367,-0.006348,0.010498,0.006348,0.,0.,0.,2.89209,-0.036377,0.012207,0.253906,102,137,67,100
56.809,15:15:4.809,-9.750977,-0.123047,-0.275391,0.008301,0.025391,-0.04248,0.,0.,0.,2.891846,-0.036621,0.012451,0.253906,103,137,67,100
56.909,15:15:4.909,-9.592773,-0.679688,0.958984,-0.013672,0.066895,-0.016846,0.,0.,0.,2.891846,-0.036377,0.012207,0.253906,103,119,67,100
57.009,15:15:5.009,-9.760742,1.183594,-0.298828,-0.015869,-0.025391,-0.066895,0.,0.,0.,2.891602,-0.036133,0.012451,0.253906,103,65,67,100
57.109,15:15:5.109,-9.760742,1.183594,-0.298828,-0.015869,-0.025391,-0.066895,0.,0.,0.,2.891602,-0.036133,0.012451,0.253906,103,65,67,100
57.209,15:15:5.209,-8.635742,-0.222656,-0.217773,-0.025391,0.026367,-0.045654,0.,0.,0.,2.891357,-0.035889,0.012939,0.253906,103,46,68,100
57.309,15:15:5.309,-10.981445,0.099609,0.992188,-0.00415,-0.043457,-0.070068,0.,0.,0.,2.891113,-0.035889,0.012939,0.253906,103,46,68,101
57.409,15:15:5.409,-9.473633,0.037109,-0.512695,-0.010498,0.048828,0.025391,0.,0.,0.,2.890869,-0.0354,0.013428,0.253906,104,46,68,100
57.509,15:15:5.509,-8.841797,-0.78418,0.507812,-0.005127,0.014893,-0.018066,0.,0.,0.,2.890625,-0.035645,0.013428,0.253906,104,46,68,100
57.609,15:15:5.609,-10.674805,0.499023,0.355469,-0.007324,0.063721,-0.028564,0.,0.,0.,2.890625,-0.035645,0.013428,0.253906,104,46,67,100
57.709,15:15:5.709,-9.358398,0.332031,-1.120117,-0.026367,-0.063721,0.006348,0.,0.,0.,2.890381,-0.035889,0.013672,0.253906,104,46,67,100
57.809,15:15:5.809,-9.214844,0.12793,0.212891,0.00415,0.081787,-0.000977,0.,0.,0.,2.890381,-0.036133,0.013672,0.253906,104,46,67,100
57.909,15:15:5.909,-10.454102,0.474609,0.037109,-0.037109,-0.014893,-0.112793,0.,0.,0.,2.889893,-0.036133,0.013672,0.253906,104,64,67,101
58.009,15:15:6.009,-9.492188,1.016602,-0.350586,-0.010498,0.011475,0.02124,0.,0.,0.,2.889893,-0.035156,0.013916,0.253906,104,120,67,100
58.109,15:15:6.109,-9.856445,-0.204102,0.075195,-0.008301,0.076416,-0.075439,0.,0.,0.,2.889648,-0.0354,0.013916,0.253906,104,139,67,100
58.209,15:15:6.209,-10.114258,0.717773,0.327148,-0.005127,0.025391,-0.018066,0.,0.,0.,2.889648,-0.035156,0.013916,0.253906,104,140,67,100
58.309,15:15:6.309,-9.827148,0.655273,-0.635742,-0.011475,-0.007324,-0.029785,0.,0.,0.,2.889404,-0.035156,0.01416,0.253906,104,141,67,101
58.409,15:15:6.409,-10.37793,-0.693359,1.239258,0.,0.106201,-0.000977,0.,0.,0.,2.888672,-0.035156,0.01416,0.253906,104,141,67,101
58.509,15:15:6.509,-9.798828,1.045898,-0.070312,-0.028564,-0.034912,-0.066895,0.,0.,0.,2.888672,-0.034424,0.014404,0.253906,104,140,67,101
58.609,15:15:6.609,-10.018555,-0.046875,0.413086,0.022217,0.074463,0.070068,0.,0.,0.,2.888184,-0.034424,0.014893,0.253906,105,140,67,100
58.709,15:15:6.709,-9.157227,-0.512695,0.332031,-0.024414,0.034912,-0.051025,0.,0.,0.,2.888184,-0.034668,0.014893,0.253906,104,102,67,100
58.809,15:15:6.809,-10.981445,0.613281,0.170898,0.,0.099854,0.015869,0.,0.,0.,2.888184,-0.034424,0.015381,0.253906,104,47,67,100
58.909,15:15:6.909,-9.9375,-0.108398,0.707031,-0.016846,1.406738,-0.150879,0.,0.,0.,2.886719,-0.042236,0.075195,0.253906,104,46,68,101
59.009,15:15:7.009,-8.951172,0.327148,1.5,-0.025391,-2.115479,2.695557,0.,0.,0.,2.888916,0.061035,0.138916,0.246094,104,46,68,100
59.109,15:15:7.109,-11.230469,0.,0.96875,-0.209473,0.716064,0.282959,0.,0.,0.,2.868896,0.169922,0.059082,0.203125,104,85,69,100
59.209,15:15:7.209,-12.847656,0.708008,-0.645508,-0.214844,0.505371,-0.356445,0.,0.,0.,2.842285,0.190918,0.012451,0.203125,104,145,60,214
59.309,15:15:7.309,-12.847656,0.708008,-0.645508,-0.214844,0.505371,-0.356445,0.,0.,0.,2.842285,0.190918,0.012451,0.203125,104,145,60,214
59.409,15:15:7.409,-12.847656,0.708008,-0.645508,-0.214844,0.505371,-0.356445,0.,0.,0.,2.842285,0.190918,0.012451,0.203125,104,145,60,214
59.509,15:15:7.509,-12.847656,0.708008,-0.645508,-0.214844,0.505371,-0.356445,0.,0.,0.,2.842285,0.190918,0.012451,0.203125,104,145,60,214
59.609,15:15:7.609,-8.032227,0.545898,2.056641,0.019043,0.301025,2.403809,0.,0.,0.,2.79541,0.021729,-0.010498,0.34375,92,109,124,215
59.709,15:15:7.709,-8.032227,0.545898,2.056641,0.019043,0.301025,2.403809,0.,0.,0.,2.79541,0.021729,-0.010498,0.34375,92,109,124,215
59.809,15:15:7.809,-9.008789,0.12793,-1.329102,0.,0.182861,0.701172,0.,0.,0.,2.799561,0.18335,-0.005371,0.324219,91,160,124,215
59.909,15:15:7.909,-10.047852,-0.118164,-0.94043,0.083008,-0.063721,-2.799805,0.,0.,0.,2.800293,0.169189,0.000488,0.289062,91,159,125,215
60.009,15:15:8.009,-10.493164,-0.660156,-0.697266,-0.00415,0.000977,-0.622559,0.,0.,0.,2.805908,0.024902,0.017822,0.214844,91,158,68,212
60.109,15:15:8.109,-11.067383,-1.601562,0.222656,-0.018066,0.148926,-1.232178,0.,0.,0.,2.802002,-0.101318,0.023438,0.214844,92,158,31,190
60.209,15:15:8.209,-10.569336,1.397461,0.327148,-0.052979,0.045654,-0.381836,0.,0.,0.,2.799561,-0.173828,0.023193,0.214844,93,159,84,130
60.309,15:15:8.309,-9.243164,-0.18457,-0.34668,-0.071289,0.145752,-0.231934,0.,0.,0.,2.793701,-0.192383,0.029297,0.214844,96,106,120,109
60.409,15:15:8.409,-9.665039,-0.332031,-1.073242,-0.121094,0.009521,-0.014893,0.,0.,0.,2.787109,-0.188477,0.035645,0.214844,97,72,117,108
60.509,15:15:8.509,-9.665039,-0.332031,-1.073242,-0.121094,0.009521,-0.014893,0.,0.,0.,2.787109,-0.188477,0.035645,0.214844,97,72,117,108
60.609,15:15:8.609,-9.832031,0.194336,-1.324219,0.005127,0.210693,1.611084,0.,0.,0.,2.791992,0.193115,0.053711,0.214844,98,75,115,105
60.709,15:15:8.709,-9.832031,0.194336,-1.324219,0.005127,0.210693,1.611084,0.,0.,0.,2.791992,0.193115,0.053711,0.214844,98,75,115,105
60.809,15:15:8.809,-9.985352,-0.033203,1.386719,0.095703,0.080811,-0.979004,0.,0.,0.,2.794434,0.221191,0.048096,0.214844,98,126,115,105
60.909,15:15:8.909,-9.071289,-0.950195,-1.338867,0.04248,-0.128662,-3.318115,0.,0.,0.,2.800537,0.004395,0.045166,0.214844,98,160,30,106
61.009,15:15:9.009,-9.071289,-0.950195,-1.338867,0.04248,-0.128662,-3.318115,0.,0.,0.,2.800537,0.004395,0.045166,0.214844,98,160,30,106
61.109,15:15:9.109,-9.980469,-0.921875,0.041992,-0.05835,0.086182,-0.936279,0.,0.,0.,2.799561,-0.196533,0.043457,0.214844,97,160,78,106
61.209,15:15:9.209,-9.980469,-0.921875,0.041992,-0.05835,0.086182,-0.936279,0.,0.,0.,2.799561,-0.196533,0.043457,0.214844,97,160,78,106
61.309,15:15:9.309,-9.765625,0.446289,0.360352,-0.13501,0.034912,0.604248,0.,0.,0.,2.793701,-0.259766,0.034912,0.214844,96,111,110,106
61.409,15:15:9.409,-10.463867,1.178711,-1.129883,-0.114746,-0.074463,-0.024414,0.,0.,0.,2.785889,-0.237061,0.027588,0.214844,95,79,105,106
61.509,15:15:9.509,-9.195312,-0.456055,-0.066406,-0.202148,-0.158447,4.042725,0.,0.,0.,2.787109,-0.017334,0.031738,0.214844,95,136,103,106
61.609,15:15:9.609,-9.914062,0.655273,0.597656,0.055176,0.259521,1.56958,0.,0.,0.,2.785156,0.164551,0.026123,0.214844,93,174,101,106
61.709,15:15:9.709,-9.530273,0.089844,1.282227,0.189209,0.184082,-3.473389,0.,0.,0.,2.780273,0.006592,0.021729,0.214844,92,173,100,108
61.809,15:15:9.809,-9.602539,-0.646484,1.320312,0.038086,-0.023193,-0.339355,0.,0.,0.,2.773682,0.132324,-0.008545,0.214844,70,171,106,121
61.909,15:15:9.909,-9.602539,-0.646484,1.320312,0.038086,-0.023193,-0.339355,0.,0.,0.,2.773682,0.132324,-0.008545,0.214844,70,171,106,121
62.009,15:15:10.009,-10.55957,1.107422,0.930664,0.134033,0.199951,-2.577393,0.,0.,0.,2.768799,-0.045654,-0.018066,0.214844,69,172,106,121
62.109,15:15:10.109,-10.55957,1.107422,0.930664,0.134033,0.199951,-2.577393,0.,0.,0.,2.768799,-0.045654,-0.018066,0.214844,69,172,106,121
62.209,15:15:10.209,-9.899414,0.608398,-0.146484,-0.078613,-0.04248,-1.023682,0.,0.,0.,2.768555,-0.151611,-0.016846,0.214844,67,173,105,121
62.309,15:15:10.309,-9.899414,0.608398,-0.146484,-0.078613,-0.04248,-1.023682,0.,0.,0.,2.768555,-0.151611,-0.016846,0.214844,67,173,105,121
62.409,15:15:10.409,-9.703125,1.297852,-0.992188,-0.09668,0.005127,0.657471,0.,0.,0.,2.762695,-0.187012,-0.013428,0.214844,67,175,104,130
62.509,15:15:10.509,-9.703125,1.297852,-0.992188,-0.09668,0.005127,0.657471,0.,0.,0.,2.762695,-0.187012,-0.013428,0.214844,67,175,104,130
62.609,15:15:10.609,-10.085938,-0.736328,0.204102,-0.112793,0.081787,0.280762,0.,0.,0.,2.757568,-0.119629,-0.010742,0.214844,65,157,102,136
62.709,15:15:10.709,-10.162109,0.34668,0.013672,-0.070068,0.02002,0.342529,0.,0.,0.,2.753662,-0.07959,-0.007812,0.214844,64,103,101,136
62.809,15:15:10.809,-10.209961,-0.356445,-0.464844,-0.063721,0.,0.124512,0.,0.,0.,2.750732,-0.055176,-0.009033,0.214844,63,86,101,136
62.909,15:15:10.909,-9.698242,0.033203,1.073242,-0.018066,0.09668,2.403809,0.,0.,0.,2.751709,0.014893,-0.002686,0.214844,63,89,101,136
63.009,15:15:11.009,-9.449219,-0.703125,-0.255859,0.013672,0.092529,0.453125,0.,0.,0.,2.751465,0.157959,-0.004395,0.214844,63,107,104,136
63.109,15:15:11.109,-9.449219,-0.703125,-0.255859,0.013672,0.092529,0.453125,0.,0.,0.,2.751465,0.157959,-0.004395,0.214844,63,107,104,136
63.209,15:15:11.209,-10.617188,1.049805,-0.897461,0.071289,-0.008301,-1.597168,0.,0.,0.,2.75415,0.160889,-0.000488,0.214844,64,161,104,136
63.309,15:15:11.309,-10.617188,1.049805,-0.897461,0.071289,-0.008301,-1.597168,0.,0.,0.,2.75415,0.160889,-0.000488,0.214844,64,161,104,136
63.409,15:15:11.409,-9.693359,0.451172,0.902344,0.045654,-0.049805,-0.304199,0.,0.,0.,2.760254,0.096191,0.012207,0.214844,64,162,104,137
63.509,15:15:11.509,-9.693359,0.451172,0.902344,0.045654,-0.049805,-0.304199,0.,0.,0.,2.760254,0.096191,0.012207,0.214844,64,162,104,137
63.609,15:15:11.609,-9.55957,0.636719,-0.003906,-0.081787,0.009521,-0.90332,0.,0.,0.,2.752197,-0.163086,0.015625,0.214844,69,136,102,135
63.709,15:15:11.709,-9.55957,0.636719,-0.003906,-0.081787,0.009521,-0.90332,0.,0.,0.,2.752197,-0.163086,0.015625,0.214844,69,136,102,135
63.809,15:15:11.809,-9.617188,0.827148,-0.99707,-0.105225,0.120117,0.731934,0.,0.,0.,2.746338,-0.144043,0.030518,0.214844,73,135,100,194
63.909,15:15:11.909,-9.617188,0.827148,-0.99707,-0.105225,0.120117,0.731934,0.,0.,0.,2.746338,-0.144043,0.030518,0.214844,73,135,100,194
64.009,15:15:12.009,-9.023438,0.631836,-0.179688,-0.090332,0.187256,0.377686,0.,0.,0.,2.740723,-0.11499,0.032227,0.214844,68,156,98,234
64.109,15:15:12.109,-10.09082,1.364258,-0.792969,-0.061523,0.,0.135986,0.,0.,0.,2.736572,-0.094971,0.029297,0.214844,66,189,96,234
64.209,15:15:12.209,-9.9375,0.351562,1.424805,-0.077637,-0.029785,-0.04248,0.,0.,0.,2.732666,-0.06958,0.039307,0.214844,66,189,94,234
64.309,15:15:12.309,-9.947266,0.094727,1.091797,-0.083984,-0.148926,0.067871,0.,0.,0.,2.729736,-0.05835,0.030518,0.265625,67,191,94,234
64.409,15:15:12.409,-9.162109,-0.094727,-0.630859,-0.04248,-0.043457,0.063721,0.,0.,0.,2.727295,-0.054688,0.009521,0.265625,67,190,95,234
64.509,15:15:12.509,-10.579102,-1.011719,-0.075195,-0.063721,-0.055176,0.031738,0.,0.,0.,2.720703,-0.036377,0.014893,0.203125,68,191,96,234
64.609,15:15:12.609,-10.579102,-1.011719,-0.075195,-0.063721,-0.055176,0.031738,0.,0.,0.,2.720703,-0.036377,0.014893,0.203125,68,191,96,234
64.709,15:15:12.709,-10.186523,0.545898,-0.630859,-0.065918,0.0979,0.039307,0.,0.,0.,2.719238,-0.026367,0.021484,0.203125,69,194,97,234
64.809,15:15:12.809,-9.535156,0.037109,-0.664062,-0.061523,0.047852,0.051025,0.,0.,0.,2.716553,-0.02124,0.020508,0.203125,69,192,100,234
64.909,15:15:12.909,-9.574219,1.102539,-0.360352,-0.032959,-0.073242,0.127686,0.,0.,0.,2.713135,-0.012207,0.024902,0.203125,70,191,101,234
65.009,15:15:13.009,-9.808594,-0.166016,-0.260742,-0.036133,0.074463,0.078613,0.,0.,0.,2.711182,-0.006348,0.025879,0.203125,71,187,103,234
65.109,15:15:13.109,-10.052734,1.306641,-1.115234,-0.022217,0.074463,-0.045654,0.,0.,0.,2.709717,-0.003662,0.024414,0.203125,72,182,104,234
65.209,15:15:13.209,-9.970703,-0.318359,1.073242,-0.027588,-0.011475,-0.062744,0.,0.,0.,2.709473,0.000732,0.029297,0.203125,72,181,106,234
65.309,15:15:13.309,-9.425781,0.061523,0.864258,-0.02002,0.034912,0.043457,0.,0.,0.,2.708008,-0.000244,0.032227,0.203125,72,181,106,234
65.409,15:15:13.409,-9.712891,0.18457,0.084961,-0.028564,0.095703,-0.047852,0.,0.,0.,2.706299,0.,0.027344,0.203125,72,180,107,213
65.509,15:15:13.509,-9.521484,-0.170898,0.013672,-0.038086,-0.11377,-0.018066,0.,0.,0.,2.704102,-0.001709,0.028076,0.203125,72,180,107,151
65.609,15:15:13.609,-9.535156,-0.731445,-0.417969,-0.072266,0.054199,-0.073242,0.,0.,0.,2.701904,-0.003906,0.025146,0.203125,72,120,108,131
65.709,15:15:13.709,-8.827148,-0.080078,-0.255859,-0.065918,-0.080811,-0.15625,0.,0.,0.,2.69873,-0.008789,0.018555,0.203125,73,143,108,131
65.809,15:15:13.809,-8.827148,-0.080078,-0.255859,-0.065918,-0.080811,-0.15625,0.,0.,0.,2.69873,-0.008789,0.018555,0.203125,73,143,108,131
65.909,15:15:13.909,-9.477539,-0.023438,-0.40332,-0.012695,0.044678,-0.056396,0.,0.,0.,2.697021,-0.012695,0.019287,0.203125,72,185,107,131
66.009,15:15:14.009,-9.147461,0.650391,-0.72168,-0.006348,0.064697,0.001953,0.,0.,0.,2.695068,-0.02002,0.017822,0.203125,72,185,107,131
66.109,15:15:14.109,-9.818359,0.066406,-0.72168,-0.026367,0.069092,0.026367,0.,0.,0.,2.694824,-0.022217,0.013428,0.203125,72,189,105,131
66.209,15:15:14.209,-10.37793,0.237305,1.277344,-0.011475,0.009521,0.006348,0.,0.,0.,2.69458,-0.022217,0.015625,0.203125,72,190,105,157
66.309,15:15:14.309,-10.105469,0.479492,0.479492,-0.02124,0.016846,-0.138184,0.,0.,0.,2.69458,-0.021973,0.016846,0.199219,72,192,104,196
66.409,15:15:14.409,-9.574219,1.27832,-1.196289,-0.022217,-0.047852,-0.000977,0.,0.,0.,2.694824,-0.026123,0.01709,0.222656,72,151,104,196
66.509,15:15:14.509,-9.574219,1.27832,-1.196289,-0.022217,-0.047852,-0.000977,0.,0.,0.,2.694824,-0.026123,0.01709,0.222656,72,151,104,196
66.609,15:15:14.609,-9.574219,1.27832,-1.196289,-0.022217,-0.047852,-0.000977,0.,0.,0.,2.694824,-0.026123,0.01709,0.222656,72,151,104,196
66.709,15:15:14.709,-9.879883,-0.356445,-0.617188,-0.054199,-0.02002,-0.02002,0.,0.,0.,2.692871,-0.030518,0.019775,0.222656,72,166,99,196
66.809,15:15:14.809,-9.879883,-0.356445,-0.617188,-0.054199,-0.02002,-0.02002,0.,0.,0.,2.692871,-0.030518,0.019775,0.222656,72,166,99,196
66.909,15:15:14.909,-9.40625,0.108398,-0.046875,-0.011475,0.05835,-0.163818,0.,0.,0.,2.692139,-0.037842,0.02124,0.222656,72,194,98,196
67.009,15:15:15.009,-9.40625,0.108398,-0.046875,-0.011475,0.05835,-0.163818,0.,0.,0.,2.692139,-0.037842,0.02124,0.222656,72,194,98,196
67.109,15:15:15.109,-10.15332,0.336914,1.086914,-0.051025,-0.031738,0.084961,0.,0.,0.,2.687988,-0.04248,0.020508,0.222656,71,197,94,132
67.209,15:15:15.209,-10.325195,-0.12793,-0.640625,-0.087158,0.071289,0.034912,0.,0.,0.,2.68457,-0.044434,0.020996,0.222656,71,200,93,132
67.309,15:15:15.309,-9.832031,-0.161133,-0.313477,-0.084961,0.033936,-0.175537,0.,0.,0.,2.680908,-0.041504,0.018311,0.222656,70,194,92,132
67.409,15:15:15.409,-10.110352,0.422852,-0.250977,-0.073242,0.001953,-0.000977,0.,0.,0.,2.678467,-0.04541,0.017334,0.222656,70,173,91,133
67.509,15:15:15.509,-9.612305,0.769531,-0.75,-0.064697,-0.114746,0.089355,0.,0.,0.,2.674316,-0.046143,0.014648,0.222656,70,174,90,136
67.609,15:15:15.609,-10.095703,-0.427734,0.597656,-0.084961,-0.067871,-0.016846,0.,0.,0.,2.670654,-0.043701,0.015137,0.222656,70,200,89,136
67.709,15:15:15.709,-9.62207,0.575195,-0.541016,-0.052002,0.052979,-0.092529,0.,0.,0.,2.667236,-0.041748,0.012451,0.222656,70,190,89,137
67.809,15:15:15.809,-9.861328,-0.375,-1.338867,-0.089355,-0.093506,-0.023193,0.,0.,0.,2.664062,-0.039551,0.016113,0.222656,70,136,88,137
67.909,15:15:15.909,-9.970703,-0.237305,0.075195,-0.056396,-0.013672,0.089355,0.,0.,0.,2.660156,-0.039062,0.019043,0.214844,70,135,87,138
68.009,15:15:16.009,-9.970703,-0.237305,0.075195,-0.056396,-0.013672,0.089355,0.,0.,0.,2.660156,-0.039062,0.019043,0.214844,70,135,87,138
68.109,15:15:16.109,-9.142578,-0.204102,-0.835938,-0.055176,0.04248,-0.101074,0.,0.,0.,2.650635,-0.040527,0.025879,0.246094,69,204,88,140
68.209,15:15:16.209,-9.444336,-0.123047,1.191406,-0.070068,0.103027,-0.049805,0.,0.,0.,2.647217,-0.038574,0.025635,0.265625,69,204,89,140
68.309,15:15:16.309,-9.482422,0.46582,1.091797,-0.074463,-0.018066,0.093506,0.,0.,0.,2.642578,-0.038086,0.026855,0.273438,68,177,90,140
68.409,15:15:16.409,-9.205078,-0.066406,-0.061523,-0.05835,-0.044678,0.019043,0.,0.,0.,2.635498,-0.02124,0.012939,0.25,66,104,94,140
68.509,15:15:16.509,-10.483398,-0.34668,0.592773,-0.073242,0.005127,-0.087158,0.,0.,0.,2.631348,-0.013916,0.012695,0.226562,66,152,96,140
68.609,15:15:16.609,-10.483398,-0.34668,0.592773,-0.073242,0.005127,-0.087158,0.,0.,0.,2.631348,-0.013916,0.012695,0.226562,66,152,96,140
68.709,15:15:16.709,-10.650391,0.237305,0.250977,-0.047852,0.143555,0.057373,0.,0.,0.,2.625732,-0.002441,0.009766,0.203125,64,198,99,140
68.809,15:15:16.809,-10.392578,-0.517578,0.379883,-0.040283,-0.09668,-0.029785,0.,0.,0.,2.623535,-0.001221,0.009033,0.207031,62,198,101,140
68.909,15:15:16.909,-10.392578,-0.517578,0.379883,-0.040283,-0.09668,-0.029785,0.,0.,0.,2.623535,-0.001221,0.009033,0.207031,62,198,101,140
69.009,15:15:17.009,-9.836914,-0.793945,-1.376953,-0.034912,0.000977,-0.006348,0.,0.,0.,2.622314,-0.000488,0.008789,0.257812,62,198,101,220
69.109,15:15:17.109,-9.506836,0.46582,1.291016,-0.032959,0.065918,-0.038086,0.,0.,0.,2.618164,0.001465,0.002686,0.273438,60,126,102,274
69.209,15:15:17.209,-10.40625,-0.170898,0.322266,-0.062744,-0.066895,-0.065918,0.,0.,0.,2.615967,0.000732,0.002197,0.253906,60,156,104,274
69.309,15:15:17.309,-11.057617,0.303711,1.538086,-0.036133,0.05957,0.009521,0.,0.,0.,2.614258,-0.00415,0.00293,0.222656,60,202,104,274
69.409,15:15:17.409,-11.057617,0.303711,1.538086,-0.036133,0.05957,0.009521,0.,0.,0.,2.614258,-0.00415,0.00293,0.222656,60,202,104,274
69.509,15:15:17.509,-11.382812,0.02832,-0.973633,-0.057373,0.006348,-0.008301,0.,0.,0.,2.612061,-0.00708,0.003906,0.203125,60,174,106,274
69.609,15:15:17.609,-10.493164,-0.12793,1.177734,-0.061523,-0.026367,-0.083008,0.,0.,0.,2.608643,-0.008301,0.013672,0.203125,61,133,105,274
69.709,15:15:17.709,-10.105469,0.755859,-0.640625,-0.075439,0.134033,-0.052979,0.,0.,0.,2.605713,-0.00708,0.014893,0.21875,61,107,105,274
69.809,15:15:17.809,-9.089844,0.379883,-0.569336,-0.070068,0.022217,0.026367,0.,0.,0.,2.601807,-0.007568,0.019043,0.257812,62,69,105,274
69.909,15:15:17.909,-8.832031,0.688477,-1.134766,-0.073242,-0.02124,2.494385,0.,0.,0.,2.602783,0.074219,0.021484,0.292969,64,91,106,274
70.009,15:15:18.009,-8.304688,0.489258,-0.816406,0.040283,0.123291,0.486328,0.,0.,0.,2.602295,0.188477,0.021484,0.289062,65,126,104,274
70.109,15:15:18.109,-9.827148,0.626953,-0.464844,0.116943,0.140381,-3.825684,0.,0.,0.,2.600342,0.04541,0.022949,0.28125,68,154,102,274
70.209,15:15:18.209,-9.243164,-1.306641,0.992188,-0.134033,-0.222412,-1.681396,0.,0.,0.,2.599609,-0.096924,0.034668,0.265625,69,196,100,277
70.309,15:15:18.309,-9.904297,0.560547,-0.398438,-0.160645,0.101074,0.557617,0.,0.,0.,2.593994,-0.125244,0.048584,0.253906,72,201,99,278
70.409,15:15:18.409,-9.023438,-1.197266,-1.015625,-0.108398,-0.039307,0.016846,0.,0.,0.,2.57959,-0.108643,0.043701,0.253906,77,157,93,278
70.509,15:15:18.509,-9.875,0.24707,1.048828,-0.092529,0.009521,-0.116943,0.,0.,0.,2.572754,-0.076904,0.050537,0.265625,78,125,90,278
70.609,15:15:18.609,-9.875,0.24707,1.048828,-0.092529,0.009521,-0.116943,0.,0.,0.,2.572754,-0.076904,0.050537,0.265625,78,125,90,278
70.709,15:15:18.709,-9.492188,-0.370117,-0.792969,-0.091309,0.061523,0.041504,0.,0.,0.,2.561523,-0.067383,0.054688,0.273438,82,144,86,278
70.809,15:15:18.809,-9.492188,-0.370117,-0.792969,-0.091309,0.061523,0.041504,0.,0.,0.,2.561523,-0.067383,0.054688,0.273438,82,144,86,278
70.909,15:15:18.909,-9.229492,-0.764648,-0.327148,-0.121094,-0.014893,-0.02002,0.,0.,0.,2.556396,-0.061279,0.055908,0.273438,82,127,86,278
71.009,15:15:19.009,-10.310547,0.912109,0.688477,-0.061523,-0.032959,-0.074463,0.,0.,0.,2.551025,-0.058838,0.058105,0.265625,82,117,84,278
71.109,15:15:19.109,-10.071289,-0.104492,-0.179688,-0.077637,-0.139404,-0.012695,0.,0.,0.,2.546631,-0.055664,0.049805,0.257812,81,171,83,278
71.209,15:15:19.209,-9.942383,0.427734,-1.5625,-0.086182,-0.124512,0.192383,0.,0.,0.,2.537842,-0.038818,0.029297,0.25,78,163,89,278
71.309,15:15:19.309,-10.124023,1.84375,-0.28418,-0.065918,-0.009521,-0.016846,0.,0.,0.,2.533447,-0.029785,0.023438,0.25,76,134,87,278
71.409,15:15:19.409,-10.124023,1.84375,-0.28418,-0.065918,-0.009521,-0.016846,0.,0.,0.,2.533447,-0.029785,0.023438,0.25,76,134,87,278
71.509,15:15:19.509,-10.081055,-0.588867,1.206055,-0.091309,-0.099854,-0.010498,0.,0.,0.,2.529541,-0.02417,0.020752,0.25,74,177,86,278
71.609,15:15:19.609,-10.081055,-0.588867,1.206055,-0.091309,-0.099854,-0.010498,0.,0.,0.,2.529541,-0.02417,0.020752,0.25,74,177,86,278
71.709,15:15:19.709,-8.889648,-0.199219,1.410156,-0.034912,-0.069092,-0.031738,0.,0.,0.,2.523926,-0.012207,0.005615,0.277344,68,160,91,278
71.809,15:15:19.809,-9.286133,0.323242,0.431641,-0.048828,-0.011475,-0.029785,0.,0.,0.,2.520752,-0.011719,-0.00293,0.304688,65,122,93,278
71.909,15:15:19.909,-9.286133,0.323242,0.431641,-0.048828,-0.011475,-0.029785,0.,0.,0.,2.520752,-0.011719,-0.00293,0.304688,65,122,93,278
72.009,15:15:20.009,-10.790039,0.636719,-0.96875,-0.060547,0.135986,2.221924,0.,0.,0.,2.515381,0.087158,-0.013916,0.246094,59,100,99,277
72.109,15:15:20.109,-10.128906,-0.575195,-1.030273,0.049805,0.17749,0.541504,0.,0.,0.,2.515137,0.19458,-0.02002,0.242188,59,122,102,276
72.209,15:15:20.209,-11.249023,1.820312,-2.664062,0.111572,0.138184,-3.150879,0.,0.,0.,2.513916,0.05835,-0.013184,0.253906,60,184,103,275
72.309,15:15:20.309,-9.454102,-0.313477,-0.446289,-0.072266,-0.203125,-1.375977,0.,0.,0.,2.514648,-0.060791,-0.002441,0.261719,60,177,105,274
72.409,15:15:20.409,-8.78418,-0.40332,0.222656,-0.07959,0.212646,0.617188,0.,0.,0.,2.510254,-0.113037,0.004883,0.285156,61,96,105,272
72.509,15:15:20.509,-9.578125,1.135742,-0.982422,-0.084961,0.189209,0.231934,0.,0.,0.,2.503174,-0.077881,0.013184,0.304688,63,95,104,270
72.609,15:15:20.609,-9.578125,1.135742,-0.982422,-0.084961,0.189209,0.231934,0.,0.,0.,2.503174,-0.077881,0.013184,0.304688,63,95,104,270
72.709,15:15:20.709,-9.917969,1.573242,-0.250977,-0.083984,0.098877,2.0271,0.,0.,0.,2.500977,-0.011475,0.02124,0.3125,66,175,104,270
72.809,15:15:20.809,-9.295898,-0.845703,-0.174805,-0.024414,-0.00415,-4.033203,0.,0.,0.,2.503418,0.134277,0.036133,0.316406,68,142,106,270
72.909,15:15:20.909,-9.295898,-0.845703,-0.174805,-0.024414,-0.00415,-4.033203,0.,0.,0.,2.503418,0.134277,0.036133,0.316406,68,142,106,270
73.009,15:15:21.009,-9.535156,0.146484,1.542969,-0.084961,0.430908,1.670654,0.,0.,0.,2.491455,-0.169922,0.055664,0.3125,72,111,108,270
73.109,15:15:21.109,-10.506836,0.432617,1.861328,-0.098877,0.233887,0.210693,0.,0.,0.,2.482422,-0.130859,0.043945,0.320312,73,125,107,270
73.209,15:15:21.209,-10.506836,0.432617,1.861328,-0.098877,0.233887,0.210693,0.,0.,0.,2.482422,-0.130859,0.043945,0.320312,73,125,107,270
73.309,15:15:21.309,-10.330078,1.339844,-0.426758,-0.137207,-0.166016,0.635254,0.,0.,0.,2.476074,-0.043457,0.055176,0.316406,75,181,106,267
73.409,15:15:21.409,-9.28125,0.146484,-1.111328,-0.081787,0.072266,0.282959,0.,0.,0.,2.471436,0.005615,0.060547,0.3125,78,182,104,265
73.509,15:15:21.509,-10.349609,0.132812,-1.338867,-0.080811,0.186035,-0.651123,0.,0.,0.,2.466064,-0.033691,0.057373,0.308594,80,130,104,263
73.609,15:15:21.609,-9.650391,0.24707,-0.421875,-0.065918,-0.088135,-0.40332,0.,0.,0.,2.461426,-0.061035,0.060303,0.308594,81,107,105,262
73.709,15:15:21.709,-8.640625,-0.489258,-0.018555,-0.112793,-0.098877,0.171143,0.,0.,0.,2.455811,-0.065674,0.063477,0.3125,82,99,105,263
73.809,15:15:21.809,-9.660156,0.698242,0.479492,-0.0979,0.104248,0.05835,0.,0.,0.,2.44873,-0.050049,0.057861,0.316406,82,104,106,264
73.909,15:15:21.909,-9.922852,1.334961,-1.300781,-0.070068,0.010498,1.499268,0.,0.,0.,2.44458,-0.00708,0.056885,0.3125,82,112,105,260
74.009,15:15:22.009,-9.688477,-0.665039,0.944336,0.044678,-0.324463,-2.342285,0.,0.,0.,2.441406,0.067383,0.040527,0.3125,78,190,106,258
74.109,15:15:22.109,-9.818359,-0.712891,1.091797,-0.05957,-0.108398,-0.485107,0.,0.,0.,2.44043,-0.051514,0.040283,0.3125,74,151,108,258
74.209,15:15:22.209,-10.110352,0.802734,-0.075195,-0.125488,-0.019043,0.760742,0.,0.,0.,2.436035,-0.084961,0.022949,0.3125,71,93,107,224
74.309,15:15:22.309,-9.463867,0.018555,-1.529297,-0.086182,-0.039307,0.005127,0.,0.,0.,2.429443,-0.064697,0.008057,0.324219,70,85,107,213
74.409,15:15:22.409,-9.932617,0.018555,0.902344,-0.132812,-0.231934,1.770752,0.,0.,0.,2.430908,0.073486,0.002197,0.324219,69,73,107,249
74.509,15:15:22.509,-9.46875,0.046875,-0.626953,0.015869,0.134033,0.794922,0.,0.,0.,2.431152,0.151611,-0.003662,0.324219,68,119,108,265
74.609,15:15:22.609,-9.286133,-0.945312,0.925781,0.006348,0.071289,-0.909668,0.,0.,0.,2.432861,0.161621,-0.009766,0.335938,68,189,107,277
74.709,15:15:22.709,-9.961914,0.855469,0.360352,0.011475,-0.031738,-0.480957,0.,0.,0.,2.434326,0.071533,0.001953,0.335938,68,145,106,279
74.809,15:15:22.809,-9.798828,-0.213867,-0.104492,-0.010498,0.105225,-1.788818,0.,0.,0.,2.431641,-0.003418,0.003418,0.332031,69,81,104,272
74.909,15:15:22.909,-9.889648,0.213867,-1.400391,-0.094482,0.07959,-0.410645,0.,0.,0.,2.426514,-0.131836,0.016113,0.335938,75,83,103,271
75.009,15:15:23.009,-10.750977,1.207031,-0.588867,-0.13501,0.398926,3.122314,0.,0.,0.,2.421875,-0.083496,0.028076,0.332031,76,86,99,275
75.109,15:15:23.109,-10.526367,1.316406,0.018555,0.056396,-0.103027,-3.973633,0.,0.,0.,2.411377,-0.000488,0.037354,0.308594,74,136,92,277
75.209,15:15:23.209,-9.678711,-2.005859,-1.210938,-0.19458,-0.196777,-1.318359,0.,0.,0.,2.407959,-0.151611,0.046631,0.3125,78,112,91,277
75.309,15:15:23.309,-9.305664,-0.674805,1.980469,-0.224365,0.204102,1.289795,0.,0.,0.,2.39917,-0.180176,0.046143,0.332031,80,96,87,277
75.409,15:15:23.409,-9.305664,-0.674805,1.980469,-0.224365,0.204102,1.289795,0.,0.,0.,2.39917,-0.180176,0.046143,0.332031,80,96,87,277
75.509,15:15:23.509,-8.884766,-0.679688,0.094727,-0.128662,0.210693,0.373535,0.,0.,0.,2.391113,-0.167969,0.036865,0.339844,83,96,85,277
75.609,15:15:23.609,-10.258789,0.603516,0.806641,-0.127686,0.065918,0.062744,0.,0.,0.,2.377686,-0.094727,0.052979,0.347656,84,61,82,271
75.709,15:15:23.709,-10.258789,0.603516,0.806641,-0.127686,0.065918,0.062744,0.,0.,0.,2.377686,-0.094727,0.052979,0.347656,84,61,82,271
75.809,15:15:23.809,-9.272461,0.451172,0.768555,-0.093506,0.114746,2.578369,0.,0.,0.,2.374512,-0.047363,0.052246,0.34375,83,39,87,253
75.909,15:15:23.909,-10.354492,0.041992,0.279297,-0.074463,0.047852,0.519287,0.,0.,0.,2.372803,0.160645,0.044434,0.335938,80,69,91,243
76.009,15:15:24.009,-10.052734,-1.083008,0.037109,0.00415,-0.429932,-0.592529,0.,0.,0.,2.375488,0.230225,0.040283,0.3125,77,90,88,236
76.109,15:15:24.109,-10.052734,-1.083008,0.037109,0.00415,-0.429932,-0.592529,0.,0.,0.,2.375488,0.230225,0.040283,0.3125,77,90,88,236
76.209,15:15:24.209,-9.214844,-1.763672,-0.166016,0.056396,-0.081787,-4.18335,0.,0.,0.,2.372314,0.01416,0.009033,0.320312,75,86,90,236
76.309,15:15:24.309,-9.37793,-1.087891,0.436523,-0.178711,-0.209473,-1.399414,0.,0.,0.,2.370605,-0.185791,0.001221,0.332031,74,82,92,232
76.409,15:15:24.409,-9.669922,-0.545898,0.821289,-0.218018,0.054199,4.498291,0.,0.,0.,2.369873,-0.054199,0.007568,0.347656,74,80,86,227
76.509,15:15:24.509,-10.052734,0.759766,-1.139648,-0.005127,0.246826,1.797363,0.,0.,0.,2.36499,0.115479,0.003174,0.347656,75,54,83,227
76.609,15:15:24.609,-10.880859,0.24707,-1.115234,0.049805,0.077637,-0.556396,0.,0.,0.,2.365234,0.179443,0.001953,0.34375,75,38,81,227
76.709,15:15:24.709,-9.487305,0.993164,-0.664062,0.016846,-0.140381,-0.413818,0.,0.,0.,2.371094,0.190186,0.013428,0.355469,76,66,80,251
76.809,15:15:24.809,-8.754883,-0.741211,-0.498047,0.019043,0.159424,-0.255371,0.,0.,0.,2.377197,0.170898,0.019531,0.355469,76,87,77,289
76.909,15:15:24.909,-8.754883,-0.741211,-0.498047,0.019043,0.159424,-0.255371,0.,0.,0.,2.377197,0.170898,0.019531,0.355469,76,87,77,289
77.009,15:15:25.009,-9.549805,0.746094,-1.785156,0.077637,0.041504,-0.081787,0.,0.,0.,2.379395,0.105225,0.02124,0.355469,78,93,73,286
77.109,15:15:25.109,-10.550781,-0.270508,0.413086,-0.060547,0.046631,-0.974609,0.,0.,0.,2.376953,-0.20459,0.041992,0.355469,85,216,61,284
77.209,15:15:25.209,-9.875,-0.489258,0.383789,-0.229736,-0.688477,0.306396,0.,0.,0.,2.358643,-0.181641,0.034912,0.363281,60,204,44,298
77.309,15:15:25.309,-9.875,-0.489258,0.383789,-0.229736,-0.688477,0.306396,0.,0.,0.,2.358643,-0.181641,0.034912,0.363281,60,204,44,298
77.409,15:15:25.409,-10.420898,0.793945,-0.655273,-0.123291,-0.061523,0.224365,0.,0.,0.,2.352295,-0.149658,0.007324,0.355469,44,81,40,298
77.509,15:15:25.509,-10.420898,0.793945,-0.655273,-0.123291,-0.061523,0.224365,0.,0.,0.,2.352295,-0.149658,0.007324,0.355469,44,81,40,298
77.609,15:15:25.609,-10.267578,0.769531,-0.113281,-0.217041,-0.759766,-0.008301,0.,0.,0.,2.348389,-0.144531,-0.054688,0.351562,43,40,36,298
77.709,15:15:25.709,-10.171875,0.166016,1.277344,-0.119141,-0.203125,-0.098877,0.,0.,0.,2.340088,-0.141357,-0.087891,0.34375,43,40,35,282
77.809,15:15:25.809,-10.50293,0.413086,-1.367188,-0.116943,0.323486,0.110596,0.,0.,0.,2.33374,-0.137939,-0.0979,0.332031,40,62,35,272
77.909,15:15:25.909,-10.234375,0.389648,0.707031,-0.106201,0.075439,0.018066,0.,0.,0.,2.325439,-0.123779,-0.070312,0.324219,39,126,36,257
78.009,15:15:26.009,-10.234375,0.389648,0.707031,-0.106201,0.075439,0.018066,0.,0.,0.,2.325439,-0.123779,-0.070312,0.324219,39,126,36,257
78.109,15:15:26.109,-10.071289,0.341797,0.459961,-0.116943,0.170166,0.214844,0.,0.,0.,2.312012,-0.077881,-0.035645,0.3125,54,135,44,269
78.209,15:15:26.209,-10.607422,0.298828,0.375,-0.084961,0.859863,0.464844,0.,0.,0.,2.305664,-0.052246,-0.003418,0.308594,60,132,52,285
78.309,15:15:26.309,-10.430664,0.451172,0.588867,-0.069092,0.226562,0.126465,0.,0.,0.,2.301025,-0.024414,0.050781,0.308594,65,134,60,258
78.409,15:15:26.409,-10.105469,0.441406,0.484375,-0.069092,0.293701,0.408447,0.,0.,0.,2.298096,0.003174,0.081787,0.3125,76,133,78,240
78.509,15:15:26.509,-10.158203,0.137695,0.764648,-0.043457,0.171143,0.126465,0.,0.,0.,2.295166,0.025391,0.091553,0.316406,84,131,88,229
78.609,15:15:26.609,-9.214844,0.845703,-1.576172,-0.062744,0.469238,0.991699,0.,0.,0.,2.296631,0.083984,0.118408,0.339844,93,132,96,223
78.709,15:15:26.709,-8.850586,-0.008789,-1.177734,0.006348,0.106201,0.308594,0.,0.,0.,2.296143,0.121338,0.137451,0.347656,99,134,101,213
78.809,15:15:26.809,-9.90918,0.72168,-0.426758,0.019043,0.044678,-0.375488,0.,0.,0.,2.297852,0.128662,0.144775,0.355469,115,131,110,207
78.909,15:15:26.909,-8.980469,-1.036133,0.118164,-0.010498,-0.072266,-0.182861,0.,0.,0.,2.298584,0.101562,0.147705,0.355469,126,127,113,201
79.009,15:15:27.009,-8.980469,-1.036133,0.118164,-0.010498,-0.072266,-0.182861,0.,0.,0.,2.298584,0.101562,0.147705,0.355469,126,127,113,201
79.109,15:15:27.109,-10.066406,0.827148,-0.204102,-0.025391,0.073242,-0.076416,0.,0.,0.,2.298828,0.073975,0.17334,0.351562,130,127,121,188
79.209,15:15:27.209,-9.391602,-0.204102,1.329102,-0.02124,-0.519287,-0.15625,0.,0.,0.,2.297119,0.06543,0.160889,0.347656,131,126,126,182
79.309,15:15:27.309,-10.306641,-0.40332,-1.932617,-0.012695,-0.134033,-0.090332,0.,0.,0.,2.294434,0.058594,0.110107,0.339844,132,125,125,179
79.409,15:15:27.409,-10.545898,0.318359,0.731445,-0.009521,-0.389404,-0.339355,0.,0.,0.,2.292236,0.032227,0.083008,0.328125,132,128,124,179
79.509,15:15:27.509,-10.650391,0.427734,-0.279297,-0.052979,-0.05957,-0.213867,0.,0.,0.,2.290771,0.01001,0.070801,0.320312,133,134,121,182
79.609,15:15:27.609,-10.541016,0.327148,-0.132812,-0.081787,-0.025391,-0.214844,0.,0.,0.,2.287109,-0.003906,0.056641,0.324219,133,138,118,185
79.709,15:15:27.709,-10.541016,0.327148,-0.132812,-0.081787,-0.025391,-0.214844,0.,0.,0.,2.287109,-0.003906,0.056641,0.324219,133,138,118,185
79.809,15:15:27.809,-9.320312,0.046875,-0.099609,-0.091309,0.001953,-0.204102,0.,0.,0.,2.276611,-0.027832,0.050537,0.351562,126,136,112,196
79.909,15:15:27.909,-10.186523,0.68457,0.094727,-0.102051,-0.02124,-0.128662,0.,0.,0.,2.270996,-0.036621,0.042969,0.355469,119,125,108,208
80.009,15:15:28.009,-9.779297,0.123047,0.526367,-0.114746,-0.073242,-0.046631,0.,0.,0.,2.264648,-0.040527,0.044189,0.367188,101,125,103,213
80.109,15:15:28.109,-9.789062,-0.194336,0.208984,-0.066895,0.044678,-0.062744,0.,0.,0.,2.259277,-0.05127,0.041504,0.375,93,127,97,219
80.209,15:15:28.209,-9.836914,0.265625,-0.379883,-0.131836,-0.077637,-0.074463,0.,0.,0.,2.238037,-0.0979,-0.076904,0.394531,68,125,77,237
80.309,15:15:28.309,-9.836914,0.265625,-0.379883,-0.131836,-0.077637,-0.074463,0.,0.,0.,2.238037,-0.0979,-0.076904,0.394531,68,125,77,237
80.409,15:15:28.409,-10.416016,1.416016,0.189453,-0.075439,-0.034912,0.016846,0.,0.,0.,2.217041,-0.081543,-0.058105,0.378906,56,125,71,234
80.509,15:15:28.509,-10.416016,1.416016,0.189453,-0.075439,-0.034912,0.016846,0.,0.,0.,2.217041,-0.081543,-0.058105,0.378906,56,125,71,234
80.609,15:15:28.609,-10.038086,0.646484,0.084961,-0.09668,0.11792,-0.04248,0.,0.,0.,2.211426,-0.075195,-0.051025,0.375,58,122,76,232
80.709,15:15:28.709,-10.258789,0.,0.873047,-0.127686,0.170166,-0.040283,0.,0.,0.,2.20459,-0.061523,-0.033447,0.371094,61,121,73,230
80.809,15:15:28.809,-9.703125,0.142578,-0.451172,-0.095703,0.42334,0.413818,0.,0.,0.,2.19751,-0.047363,-0.019287,0.371094,66,119,71,227
80.909,15:15:28.909,-10.320312,0.688477,0.62207,-0.083984,0.121094,0.056396,0.,0.,0.,2.189209,-0.023438,0.014893,0.367188,69,118,81,223
81.009,15:15:29.009,-10.325195,0.318359,0.360352,-0.138184,0.390381,0.163818,0.,0.,0.,2.18335,-0.007324,0.036621,0.367188,75,115,89,219
81.109,15:15:29.109,-10.325195,0.318359,0.360352,-0.138184,0.390381,0.163818,0.,0.,0.,2.18335,-0.007324,0.036621,0.367188,75,115,89,219
81.209,15:15:29.209,-10.349609,1.083008,0.360352,-0.073242,0.19043,0.049805,0.,0.,0.,2.17749,-0.001709,0.059326,0.371094,81,113,91,213
81.309,15:15:29.309,-10.349609,1.083008,0.360352,-0.073242,0.19043,0.049805,0.,0.,0.,2.17749,-0.001709,0.059326,0.371094,81,113,91,213
81.409,15:15:29.409,-9.037109,0.051758,0.046875,-0.077637,0.337158,0.420166,0.,0.,0.,2.172363,0.013672,0.077393,0.375,91,110,93,207
81.509,15:15:29.509,-9.037109,0.051758,0.046875,-0.077637,0.337158,0.420166,0.,0.,0.,2.172363,0.013672,0.077393,0.375,91,110,93,207
81.609,15:15:29.609,-9.439453,0.242188,-0.336914,-0.064697,0.116943,0.081787,0.,0.,0.,2.169189,0.032471,0.092529,0.390625,93,109,105,200
81.709,15:15:29.709,-9.439453,0.242188,-0.336914,-0.064697,0.116943,0.081787,0.,0.,0.,2.169189,0.032471,0.092529,0.390625,93,109,105,200
81.809,15:15:29.809,-9.985352,0.59375,1.458008,-0.077637,0.285156,0.095703,0.,0.,0.,2.166016,0.048096,0.110596,0.390625,97,109,116,193
81.909,15:15:29.909,-9.985352,0.59375,1.458008,-0.077637,0.285156,0.095703,0.,0.,0.,2.166016,0.048096,0.110596,0.390625,97,109,116,193
82.009,15:15:30.009,-9.774414,-0.522461,0.308594,-0.037109,-0.110596,0.479736,0.,0.,0.,2.158691,0.056396,0.123779,0.402344,107,108,127,178
82.109,15:15:30.109,-9.774414,-0.522461,0.308594,-0.037109,-0.110596,0.479736,0.,0.,0.,2.158691,0.056396,0.123779,0.402344,107,108,127,178
82.209,15:15:30.209,-9.774414,0.422852,-0.061523,-0.011475,0.008301,-0.544678,0.,0.,0.,2.158936,0.137939,0.105469,0.410156,119,106,154,169
82.309,15:15:30.309,-9.917969,0.484375,-0.255859,-0.036133,0.128662,0.040283,0.,0.,0.,2.158203,0.076172,0.112061,0.410156,117,105,204,168
82.409,15:15:30.409,-9.506836,-0.936523,1.917969,-0.024414,0.129639,-0.380859,0.,0.,0.,2.155029,0.042236,0.109375,0.410156,116,105,209,167
82.509,15:15:30.509,-10.536133,-0.204102,0.579102,-0.055176,-0.11792,-0.142578,0.,0.,0.,2.135986,-0.01416,0.042236,0.410156,109,91,151,176
82.609,15:15:30.609,-10.536133,-0.204102,0.579102,-0.055176,-0.11792,-0.142578,0.,0.,0.,2.135986,-0.01416,0.042236,0.410156,109,91,151,176
82.709,15:15:30.709,-9.166992,-0.327148,0.208984,-0.109375,-0.083008,-0.155273,0.,0.,0.,2.131104,-0.024414,0.03125,0.429688,104,91,146,180
82.809,15:15:30.809,-9.166992,-0.327148,0.208984,-0.109375,-0.083008,-0.155273,0.,0.,0.,2.131104,-0.024414,0.03125,0.429688,104,91,146,180
82.909,15:15:30.909,-9.066406,-0.613281,0.141602,-0.130859,-0.314941,0.763916,0.,0.,0.,2.127197,0.033203,0.017334,0.414062,102,106,143,182
83.009,15:15:31.009,-10.430664,0.084961,1.647461,-0.057373,0.067871,0.351074,0.,0.,0.,2.122559,0.063477,0.011475,0.410156,97,112,137,184
83.109,15:15:31.109,-10.042969,0.161133,0.873047,-0.049805,0.,-1.14502,0.,0.,0.,2.118896,0.057861,0.002441,0.414062,95,115,134,189
83.209,15:15:31.209,-9.899414,-0.194336,-1.091797,-0.05835,-0.089355,-0.227539,0.,0.,0.,2.114746,-0.05127,-0.001221,0.421875,89,117,133,193
83.309,15:15:31.309,-9.333984,-0.451172,0.72168,-0.098877,0.038086,0.,0.,0.,0.,2.109863,-0.093506,-0.00708,0.441406,85,123,150,200
83.409,15:15:31.409,-9.333984,-0.451172,0.72168,-0.098877,0.038086,0.,0.,0.,0.,2.109863,-0.093506,-0.00708,0.441406,85,123,150,200
83.509,15:15:31.509,-8.975586,0.118164,-0.630859,-0.104248,-0.027588,-0.268066,0.,0.,0.,2.10498,-0.080811,-0.018311,0.46875,80,128,176,206
83.609,15:15:31.609,-9.081055,0.199219,0.711914,-0.087158,-0.202148,0.073242,0.,0.,0.,2.102051,-0.067871,-0.020996,0.472656,77,134,146,213
83.709,15:15:31.709,-9.530273,-0.541016,0.408203,-0.105225,0.04248,0.087158,0.,0.,0.,2.098633,-0.061035,-0.029053,0.472656,74,137,103,218
83.809,15:15:31.809,-9.645508,0.665039,0.003906,-0.041504,0.171143,0.124512,0.,0.,0.,2.095459,-0.053711,-0.028564,0.46875,72,143,99,219
83.909,15:15:31.909,-9.487305,0.484375,-1.082031,-0.076416,0.051025,0.033936,0.,0.,0.,2.092529,-0.047607,-0.024414,0.460938,69,145,95,220
84.009,15:15:32.009,-10.301758,0.360352,1.020508,-0.069092,0.093506,-0.796875,0.,0.,0.,2.087646,-0.092773,-0.014648,0.453125,68,149,92,221
84.109,15:15:32.109,-9.818359,1.112305,-0.72168,-0.109375,0.05835,-0.368164,0.,0.,0.,2.083008,-0.115234,-0.010742,0.464844,68,151,88,223
84.209,15:15:32.209,-9.774414,-0.170898,-0.370117,-0.09668,0.039307,0.26709,0.,0.,0.,2.077148,-0.125488,-0.008301,0.472656,68,154,88,221
84.309,15:15:32.309,-9.774414,-0.170898,-0.370117,-0.09668,0.039307,0.26709,0.,0.,0.,2.077148,-0.125488,-0.008301,0.472656,68,154,88,221
84.409,15:15:32.409,-10.306641,0.080078,0.408203,-0.081787,-0.006348,0.230713,0.,0.,0.,2.056152,0.0271,0.033203,0.425781,78,156,154,205
84.509,15:15:32.509,-10.306641,0.080078,0.408203,-0.081787,-0.006348,0.230713,0.,0.,0.,2.056152,0.0271,0.033203,0.425781,78,156,154,205
84.609,15:15:32.609,-10.598633,0.071289,0.34668,-0.043457,0.287109,0.321289,0.,0.,0.,2.056641,0.057617,0.042236,0.40625,82,155,156,199
84.709,15:15:32.709,-10.598633,0.071289,0.34668,-0.043457,0.287109,0.321289,0.,0.,0.,2.056641,0.057617,0.042236,0.40625,82,155,156,199
84.809,15:15:32.809,-10.46875,-0.717773,1.519531,-0.04248,0.077637,0.070068,0.,0.,0.,2.055664,0.071045,0.046143,0.425781,88,155,161,197
84.909,15:15:32.909,-10.46875,-0.717773,1.519531,-0.04248,0.077637,0.070068,0.,0.,0.,2.055664,0.071045,0.046143,0.425781,88,155,161,197
85.009,15:15:33.009,-9.774414,0.545898,0.194336,-0.040283,0.217041,-0.490479,0.,0.,0.,2.053711,0.04834,0.063232,0.441406,92,156,163,194
85.109,15:15:33.109,-9.942383,0.227539,-0.602539,-0.05957,-0.001953,-0.241455,0.,0.,0.,2.05249,0.025879,0.072266,0.445312,96,157,168,190
85.209,15:15:33.209,-9.942383,0.227539,-0.602539,-0.05957,-0.001953,-0.241455,0.,0.,0.,2.05249,0.025879,0.072266,0.445312,96,157,168,190
85.309,15:15:33.309,-9.708008,0.285156,1.073242,-0.02002,0.134033,0.039307,0.,0.,0.,2.045166,0.001465,0.086914,0.464844,105,159,151,177
85.409,15:15:33.409,-9.894531,0.883789,1.47168,-0.02124,0.150879,-0.083984,0.,0.,0.,2.043213,-0.008057,0.085693,0.476562,108,160,166,174
85.509,15:15:33.509,-10.09082,0.132812,1.091797,-0.060547,0.018066,-0.121094,0.,0.,0.,2.041504,-0.012207,0.087646,0.480469,112,163,176,171
85.609,15:15:33.609,-10.148438,1.168945,-0.289062,-0.028564,-0.015869,-0.134033,0.,0.,0.,2.039307,-0.013428,0.090332,0.488281,114,165,176,168
85.709,15:15:33.709,-10.148438,1.168945,-0.289062,-0.028564,-0.015869,-0.134033,0.,0.,0.,2.039307,-0.013428,0.090332,0.488281,114,165,176,168
85.809,15:15:33.809,-9.746094,-0.041992,1.766602,-0.067871,-0.087158,0.112793,0.,0.,0.,2.034424,-0.015381,0.086914,0.496094,118,166,176,163
85.909,15:15:33.909,-9.952148,0.474609,0.332031,-0.054199,-0.012695,0.046631,0.,0.,0.,2.031494,-0.014893,0.079346,0.5,121,168,176,160
86.009,15:15:34.009,-9.952148,0.474609,0.332031,-0.054199,-0.012695,0.046631,0.,0.,0.,2.031494,-0.014893,0.079346,0.5,121,168,176,160
86.109,15:15:34.109,-9.947266,0.845703,1.557617,-0.032959,0.029785,-0.046631,0.,0.,0.,2.026855,-0.013672,0.07373,0.492188,124,173,227,158
86.209,15:15:34.209,-10.579102,0.379883,0.137695,-0.056396,-0.012695,-0.02124,0.,0.,0.,2.024902,-0.011963,0.05957,0.492188,124,175,196,157
86.309,15:15:34.309,-9.267578,-0.822266,-0.655273,-0.064697,-0.063721,0.033936,0.,0.,0.,2.022461,-0.012451,0.053467,0.496094,125,176,176,156
86.409,15:15:34.409,-10.253906,0.545898,0.512695,-0.062744,-0.019043,0.022217,0.,0.,0.,2.018311,-0.014893,0.051758,0.496094,125,178,176,155
86.509,15:15:34.509,-9.607422,0.807617,0.702148,-0.044678,0.057373,-0.11792,0.,0.,0.,2.015137,-0.014404,0.047852,0.496094,126,179,176,155
86.609,15:15:34.609,-10.176758,0.532227,0.161133,-0.080811,0.089355,-0.029785,0.,0.,0.,2.012207,-0.012451,0.046143,0.5,125,180,188,155
86.709,15:15:34.709,-9.645508,-0.199219,0.099609,-0.038086,0.001953,0.056396,0.,0.,0.,2.009521,-0.014893,0.043457,0.503906,125,181,198,154
86.809,15:15:34.809,-9.841797,-0.845703,0.583984,-0.07959,-0.038086,-0.05957,0.,0.,0.,2.006104,-0.015381,0.04541,0.503906,124,175,205,154
86.909,15:15:34.909,-10.206055,0.251953,0.383789,-0.0979,0.016846,-0.116943,0.,0.,0.,2.002441,-0.011475,0.045654,0.503906,124,153,207,154
87.009,15:15:35.009,-9.277344,-0.827148,-0.474609,-0.072266,0.031738,0.001953,0.,0.,0.,1.999023,-0.008057,0.045898,0.507812,123,154,206,154
87.109,15:15:35.109,-9.277344,-0.827148,-0.474609,-0.072266,0.031738,0.001953,0.,0.,0.,1.999023,-0.008057,0.045898,0.507812,123,154,206,154
87.209,15:15:35.209,-9.947266,0.132812,2.174805,-0.029785,0.047852,0.005127,0.,0.,0.,1.992676,-0.009766,0.047852,0.511719,122,188,169,156
87.309,15:15:35.309,-9.209961,1.188477,-1.106445,-0.046631,0.052979,0.023193,0.,0.,0.,1.990967,-0.008057,0.049561,0.511719,122,188,167,156
87.409,15:15:35.409,-9.209961,1.188477,-1.106445,-0.046631,0.052979,0.023193,0.,0.,0.,1.990967,-0.008057,0.049561,0.511719,122,188,167,156
87.509,15:15:35.509,-10.085938,-0.583984,0.094727,-0.077637,-0.026367,-0.075439,0.,0.,0.,1.986572,-0.01001,0.051758,0.503906,121,191,198,158
87.609,15:15:35.609,-9.157227,-1.649414,-1.685547,-0.086182,0.066895,-0.060547,0.,0.,0.,1.983398,-0.008301,0.051514,0.511719,118,192,195,160
87.709,15:15:35.709,-10.158203,0.189453,0.958984,-0.067871,0.027588,-0.019043,0.,0.,0.,1.981934,-0.009277,0.047119,0.511719,116,193,196,161
87.809,15:15:35.809,-10.158203,0.189453,0.958984,-0.067871,0.027588,-0.019043,0.,0.,0.,1.981934,-0.009277,0.047119,0.511719,116,193,196,161
87.909,15:15:35.909,-10.100586,-0.075195,0.835938,-0.069092,0.05835,-0.025391,0.,0.,0.,1.976562,-0.006836,0.036133,0.515625,117,197,199,164
88.009,15:15:36.009,-10.052734,0.356445,-0.711914,-0.063721,0.195801,0.031738,0.,0.,0.,1.974121,-0.005615,0.033691,0.511719,114,198,198,166
88.109,15:15:36.109,-10.052734,0.356445,-0.711914,-0.063721,0.195801,0.031738,0.,0.,0.,1.974121,-0.005615,0.033691,0.511719,114,198,198,166
88.209,15:15:36.209,-9.391602,0.579102,0.393555,-0.044678,-0.122314,-0.093506,0.,0.,0.,1.967529,-0.009277,0.037598,0.535156,109,202,192,167
88.309,15:15:36.309,-9.549805,0.641602,1.010742,-0.051025,0.040283,-0.09668,0.,0.,0.,1.964355,-0.006104,0.025391,0.503906,108,205,190,168
88.409,15:15:36.409,-11.339844,0.655273,-0.735352,-0.051025,-0.09668,-0.090332,0.,0.,0.,1.96167,-0.008545,0.022217,0.472656,106,175,188,169
88.509,15:15:36.509,-10.694336,-0.503906,2.645508,-0.04248,-0.013672,0.057373,0.,0.,0.,1.959473,-0.009277,0.020752,0.488281,105,130,185,170
88.609,15:15:36.609,-10.694336,-0.503906,2.645508,-0.04248,-0.013672,0.057373,0.,0.,0.,1.959473,-0.009277,0.020752,0.488281,105,130,185,170
88.709,15:15:36.709,-10.267578,1.273438,0.597656,-0.028564,0.006348,-0.023193,0.,0.,0.,1.953613,-0.011963,0.018311,0.507812,100,215,181,173
88.809,15:15:36.809,-10.267578,1.273438,0.597656,-0.028564,0.006348,-0.023193,0.,0.,0.,1.953613,-0.011963,0.018311,0.507812,100,215,181,173
88.909,15:15:36.909,-9.066406,0.560547,0.270508,-0.078613,-0.027588,0.026367,0.,0.,0.,1.943848,-0.010498,0.007568,0.523438,95,222,166,177
