Time,UTC,FINKEN_SENSOR_MODEL:acceleration_z,FINKEN_SENSOR_MODEL:acceleration_y,FINKEN_SENSOR_MODEL:acceleration_x,FINKEN_SENSOR_MODEL:velocity_yaw,FINKEN_SENSOR_MODEL:velocity_roll,FINKEN_SENSOR_MODEL:velocity_pitch,FINKEN_SENSOR_MODEL:velocity_z,FINKEN_SENSOR_MODEL:velocity_y,FINKEN_SENSOR_MODEL:velocity_x,FINKEN_SENSOR_MODEL:pos_yaw,FINKEN_SENSOR_MODEL:pos_roll,FINKEN_SENSOR_MODEL:pos_pitch,FINKEN_SENSOR_MODEL:pos_z,FINKEN_SENSOR_MODEL:distance_d_back,FINKEN_SENSOR_MODEL:distance_d_left,FINKEN_SENSOR_MODEL:distance_d_rigth,FINKEN_SENSOR_MODEL:distance_d_front
2.759,11:42:38.759,-9.957031,0.161133,0.041992,-0.010498,0.011475,-0.028564,0.,0.,0.,2.74292,-0.001221,0.049316,0.25,102,46,144,293
2.859,11:42:38.859,-9.827148,0.099609,0.033203,-0.012695,0.011475,-0.028564,0.,0.,0.,2.743408,-0.001465,0.049316,0.25,102,46,144,293
2.959,11:42:38.959,-9.827148,0.099609,0.033203,-0.012695,0.011475,-0.028564,0.,0.,0.,2.743408,-0.001465,0.049316,0.25,102,46,144,293
3.059,11:42:39.059,-9.84668,0.061523,0.033203,-0.011475,0.008301,-0.027588,0.,0.,0.,2.743896,-0.001221,0.049072,0.25,102,46,144,293
3.159,11:42:39.159,-9.9375,0.151367,0.056641,-0.012695,0.012695,-0.027588,0.,0.,0.,2.744385,-0.001221,0.049072,0.246094,102,45,144,293
3.259,11:42:39.259,-9.9375,0.151367,0.056641,-0.012695,0.012695,-0.027588,0.,0.,0.,2.744385,-0.001221,0.049072,0.246094,102,45,144,293
3.359,11:42:39.359,-9.9375,0.151367,0.056641,-0.012695,0.012695,-0.027588,0.,0.,0.,2.744385,-0.001221,0.049072,0.246094,102,45,144,293
3.459,11:42:39.459,-9.961914,0.084961,0.061523,-0.011475,0.011475,-0.026367,0.,0.,0.,2.746582,-0.001465,0.049072,0.25,101,46,145,293
3.559,11:42:39.559,-9.889648,0.056641,0.075195,-0.014893,0.009521,-0.028564,0.,0.,0.,2.747314,-0.001465,0.048828,0.25,101,46,144,293
3.659,11:42:39.659,-9.922852,0.066406,0.046875,-0.014893,0.010498,-0.027588,0.,0.,0.,2.747803,-0.001465,0.048828,0.25,101,45,144,293
3.759,11:42:39.759,-9.879883,0.118164,0.003906,-0.011475,0.009521,-0.027588,0.,0.,0.,2.748535,-0.001465,0.048828,0.25,101,45,145,293
3.859,11:42:39.859,-9.870117,0.132812,0.008789,-0.010498,0.011475,-0.027588,0.,0.,0.,2.749023,-0.001465,0.048828,0.25,101,45,146,293
3.959,11:42:39.959,-9.870117,0.132812,0.008789,-0.010498,0.011475,-0.027588,0.,0.,0.,2.749023,-0.001465,0.048828,0.25,101,45,146,293
4.059,11:42:40.059,-9.922852,0.104492,0.070312,-0.013672,0.012695,-0.026367,0.,0.,0.,2.749512,-0.001465,0.048584,0.25,101,46,145,293
4.159,11:42:40.159,-9.836914,0.061523,0.123047,-0.013672,0.008301,-0.026367,0.,0.,0.,2.750488,-0.001465,0.048584,0.25,101,46,145,293
4.259,11:42:40.259,-9.755859,0.146484,0.061523,-0.011475,0.011475,-0.024414,0.,0.,0.,2.751221,-0.001465,0.048584,0.25,101,46,146,293
4.359,11:42:40.359,-9.841797,0.151367,0.056641,-0.012695,0.010498,-0.028564,0.,0.,0.,2.751709,-0.001465,0.048584,0.25,101,46,145,293
4.459,11:42:40.459,-9.836914,0.089844,0.118164,-0.012695,0.011475,-0.031738,0.,0.,0.,2.752197,-0.001465,0.04834,0.246094,101,46,145,293
4.559,11:42:40.559,-9.9375,0.175781,0.080078,-0.013672,0.008301,-0.026367,0.,0.,0.,2.752686,-0.001465,0.04834,0.25,101,46,144,293
4.659,11:42:40.659,-9.894531,0.118164,0.056641,-0.010498,0.010498,-0.027588,0.,0.,0.,2.753418,-0.001465,0.04834,0.25,101,46,144,293
4.759,11:42:40.759,-9.985352,0.194336,0.094727,-0.012695,0.010498,-0.028564,0.,0.,0.,2.753906,-0.001465,0.04834,0.25,101,46,144,293
4.859,11:42:40.859,-9.942383,0.108398,0.137695,-0.011475,0.009521,-0.026367,0.,0.,0.,2.754395,-0.001465,0.04834,0.25,101,46,144,293
4.959,11:42:40.959,-9.942383,0.108398,0.137695,-0.011475,0.009521,-0.026367,0.,0.,0.,2.754395,-0.001465,0.04834,0.25,101,46,144,293
5.059,11:42:41.059,-9.9375,0.108398,0.099609,-0.013672,0.011475,-0.026367,0.,0.,0.,2.754883,-0.001465,0.04834,0.25,101,46,144,293
5.159,11:42:41.159,-9.803711,0.118164,0.066406,-0.012695,0.011475,-0.026367,0.,0.,0.,2.755371,-0.001465,0.04834,0.25,101,46,144,293
5.259,11:42:41.259,-9.866211,0.118164,0.003906,-0.013672,0.011475,-0.027588,0.,0.,0.,2.756592,-0.001465,0.048096,0.246094,101,45,144,293
5.359,11:42:41.359,-9.879883,0.175781,0.037109,-0.012695,0.012695,-0.029785,0.,0.,0.,2.756836,-0.001709,0.048096,0.246094,101,45,144,293
5.459,11:42:41.459,-9.866211,0.108398,0.118164,-0.013672,0.009521,-0.027588,0.,0.,0.,2.757324,-0.001465,0.048096,0.246094,102,45,144,293
5.559,11:42:41.559,-9.889648,0.166016,0.02832,-0.009521,0.011475,-0.028564,0.,0.,0.,2.757812,-0.001465,0.048096,0.25,102,45,144,293
5.659,11:42:41.659,-9.889648,0.166016,0.02832,-0.009521,0.011475,-0.028564,0.,0.,0.,2.757812,-0.001465,0.048096,0.25,102,45,144,293
5.759,11:42:41.759,-9.866211,0.071289,0.061523,-0.012695,0.010498,-0.027588,0.,0.,0.,2.761475,-0.001709,0.047852,0.25,104,45,145,293
5.859,11:42:41.859,-9.866211,0.071289,0.061523,-0.012695,0.010498,-0.027588,0.,0.,0.,2.761475,-0.001709,0.047852,0.25,104,45,145,293
5.959,11:42:41.959,-9.927734,0.161133,0.104492,-0.012695,0.010498,-0.027588,0.,0.,0.,2.761963,-0.001709,0.047852,0.25,104,45,148,293
6.059,11:42:42.059,-9.927734,0.161133,0.104492,-0.012695,0.010498,-0.027588,0.,0.,0.,2.761963,-0.001709,0.047852,0.25,104,45,148,293
6.159,11:42:42.159,-9.866211,0.041992,0.023438,-0.011475,0.010498,-0.026367,0.,0.,0.,2.762451,-0.001709,0.047852,0.25,105,45,148,293
6.259,11:42:42.259,-9.866211,0.041992,0.023438,-0.011475,0.010498,-0.026367,0.,0.,0.,2.762451,-0.001709,0.047852,0.25,105,45,148,293
6.359,11:42:42.359,-9.922852,0.15625,0.02832,-0.011475,0.009521,-0.026367,0.,0.,0.,2.762939,-0.001709,0.047852,0.25,105,46,145,293
6.459,11:42:42.459,-9.894531,0.222656,0.075195,-0.012695,0.011475,-0.025391,0.,0.,0.,2.763428,-0.001709,0.047852,0.246094,105,46,144,293
6.559,11:42:42.559,-9.894531,0.222656,0.075195,-0.012695,0.011475,-0.025391,0.,0.,0.,2.763428,-0.001709,0.047852,0.246094,105,46,144,293
6.659,11:42:42.659,-9.861328,0.066406,0.080078,-0.012695,0.010498,-0.026367,0.,0.,0.,2.763916,-0.001953,0.047607,0.25,104,46,144,293
6.759,11:42:42.759,-9.861328,0.066406,0.080078,-0.012695,0.010498,-0.026367,0.,0.,0.,2.763916,-0.001953,0.047607,0.25,104,46,144,293
6.859,11:42:42.859,-9.904297,0.217773,0.018555,-0.010498,0.012695,-0.026367,0.,0.,0.,2.764404,-0.001953,0.047607,0.25,104,46,144,293
6.959,11:42:42.959,-9.904297,0.217773,0.018555,-0.010498,0.012695,-0.026367,0.,0.,0.,2.764404,-0.001953,0.047607,0.25,104,46,144,293
7.059,11:42:43.059,-9.90918,0.084961,0.094727,-0.012695,0.010498,-0.026367,0.,0.,0.,2.764893,-0.001953,0.047607,0.25,103,46,144,293
7.159,11:42:43.159,-9.899414,0.15625,0.084961,-0.014893,0.010498,-0.027588,0.,0.,0.,2.765137,-0.001953,0.047607,0.25,103,46,144,293
7.259,11:42:43.259,-9.975586,0.12793,0.104492,-0.014893,0.006348,-0.027588,0.,0.,0.,2.767578,-0.001953,0.047607,0.25,103,45,144,293
7.359,11:42:43.359,-9.975586,0.12793,0.104492,-0.014893,0.006348,-0.027588,0.,0.,0.,2.767578,-0.001953,0.047607,0.25,103,45,144,293
7.459,11:42:43.459,-9.856445,0.199219,-0.037109,-0.013672,0.014893,-0.026367,0.,0.,0.,2.768555,-0.001953,0.047363,0.25,103,45,144,293
7.559,11:42:43.559,-9.856445,0.199219,-0.037109,-0.013672,0.014893,-0.026367,0.,0.,0.,2.768555,-0.001953,0.047363,0.25,103,45,144,293
7.659,11:42:43.659,-9.927734,0.080078,0.099609,-0.011475,0.009521,-0.025391,0.,0.,0.,2.769043,-0.001953,0.047363,0.25,103,46,144,293
7.759,11:42:43.759,-9.927734,0.080078,0.099609,-0.011475,0.009521,-0.025391,0.,0.,0.,2.769043,-0.001953,0.047363,0.25,103,46,144,293
7.859,11:42:43.859,-9.942383,0.132812,0.023438,-0.014893,0.011475,-0.028564,0.,0.,0.,2.769531,-0.001953,0.047363,0.25,103,45,144,293
7.959,11:42:43.959,-9.914062,0.161133,0.104492,-0.010498,0.011475,-0.027588,0.,0.,0.,2.770508,-0.002197,0.047363,0.25,103,45,144,293
8.059,11:42:44.059,-9.832031,0.132812,0.023438,-0.011475,0.008301,-0.028564,0.,0.,0.,2.770996,-0.002197,0.047363,0.25,102,46,144,293
8.159,11:42:44.159,-9.879883,0.166016,0.070312,-0.010498,0.010498,-0.028564,0.,0.,0.,2.77124,-0.002197,0.047363,0.246094,102,45,144,293
8.259,11:42:44.259,-9.884766,0.108398,0.099609,-0.011475,0.007324,-0.025391,0.,0.,0.,2.771729,-0.002197,0.047119,0.25,102,45,144,293
8.359,11:42:44.359,-9.870117,0.161133,0.108398,-0.009521,0.014893,-0.028564,0.,0.,0.,2.772705,-0.002197,0.047119,0.25,102,46,144,293
8.459,11:42:44.459,-9.870117,0.161133,0.108398,-0.009521,0.014893,-0.028564,0.,0.,0.,2.772705,-0.002197,0.047119,0.25,102,46,144,293
8.559,11:42:44.559,-9.870117,0.161133,0.108398,-0.009521,0.014893,-0.028564,0.,0.,0.,2.772705,-0.002197,0.047119,0.25,102,46,144,293
8.659,11:42:44.659,-9.870117,0.161133,0.108398,-0.009521,0.014893,-0.028564,0.,0.,0.,2.772705,-0.002197,0.047119,0.25,102,46,144,293
8.759,11:42:44.759,-9.84668,0.089844,0.075195,-0.010498,0.009521,-0.025391,0.,0.,0.,2.775879,-0.002441,0.047119,0.25,102,46,144,293
8.859,11:42:44.859,-9.917969,0.02832,0.084961,-0.013672,0.009521,-0.028564,0.,0.,0.,2.776367,-0.002441,0.047119,0.246094,102,46,145,293
8.959,11:42:44.959,-10.004883,0.089844,0.,-0.011475,0.014893,-0.029785,0.,0.,0.,2.776855,-0.002441,0.047119,0.25,102,46,145,293
9.059,11:42:45.059,-10.004883,0.089844,0.,-0.011475,0.014893,-0.029785,0.,0.,0.,2.776855,-0.002441,0.047119,0.25,102,46,145,293
9.159,11:42:45.159,-9.818359,0.094727,0.061523,-0.010498,0.012695,-0.024414,0.,0.,0.,2.777588,-0.002441,0.046875,0.246094,102,46,145,293
9.259,11:42:45.259,-9.818359,0.094727,0.061523,-0.010498,0.012695,-0.024414,0.,0.,0.,2.777588,-0.002441,0.046875,0.246094,102,46,145,293
9.359,11:42:45.359,-9.818359,0.094727,0.061523,-0.010498,0.012695,-0.024414,0.,0.,0.,2.777588,-0.002441,0.046875,0.246094,102,46,145,293
9.459,11:42:45.459,-9.818359,0.094727,0.061523,-0.010498,0.012695,-0.024414,0.,0.,0.,2.777588,-0.002441,0.046875,0.246094,102,46,145,293
9.559,11:42:45.559,-9.818359,0.094727,0.061523,-0.010498,0.012695,-0.024414,0.,0.,0.,2.777588,-0.002441,0.046875,0.246094,102,46,145,293
9.659,11:42:45.659,-9.851562,0.132812,0.075195,-0.011475,0.011475,-0.028564,0.,0.,0.,2.780273,-0.002686,0.046875,0.25,102,46,144,293
9.759,11:42:45.759,-9.851562,0.132812,0.075195,-0.011475,0.011475,-0.028564,0.,0.,0.,2.780273,-0.002686,0.046875,0.25,102,46,144,293
9.859,11:42:45.859,-9.90918,0.118164,0.118164,-0.012695,0.012695,-0.029785,0.,0.,0.,2.78125,-0.002686,0.046631,0.25,102,46,144,293
9.959,11:42:45.959,-9.90918,0.118164,0.118164,-0.012695,0.012695,-0.029785,0.,0.,0.,2.78125,-0.002686,0.046631,0.25,102,46,144,293
10.059,11:42:46.059,-9.875,0.084961,0.113281,-0.009521,0.011475,-0.027588,0.,0.,0.,2.782227,-0.002686,0.046631,0.25,102,46,144,293
10.159,11:42:46.159,-9.866211,0.099609,0.099609,-0.010498,0.010498,-0.028564,0.,0.,0.,2.782959,-0.002686,0.046631,0.25,102,46,144,293
10.259,11:42:46.259,-9.879883,0.151367,0.089844,-0.011475,0.011475,-0.027588,0.,0.,0.,2.783203,-0.002686,0.046631,0.25,102,46,144,293
10.359,11:42:46.359,-9.879883,0.118164,0.046875,-0.010498,0.010498,-0.029785,0.,0.,0.,2.783691,-0.00293,0.046631,0.25,102,46,144,293
10.459,11:42:46.459,-9.917969,0.075195,0.033203,-0.011475,0.010498,-0.028564,0.,0.,0.,2.784424,-0.00293,0.046631,0.25,102,46,144,294
10.559,11:42:46.559,-9.917969,0.075195,0.033203,-0.011475,0.010498,-0.028564,0.,0.,0.,2.784424,-0.00293,0.046631,0.25,102,46,144,294
10.659,11:42:46.659,-9.990234,0.089844,0.003906,-0.010498,0.009521,-0.028564,0.,0.,0.,2.784668,-0.00293,0.046631,0.25,102,46,144,293
10.759,11:42:46.759,-9.990234,0.089844,0.003906,-0.010498,0.009521,-0.028564,0.,0.,0.,2.784668,-0.00293,0.046631,0.25,102,46,144,293
10.859,11:42:46.859,-9.793945,0.075195,0.099609,-0.012695,0.011475,-0.025391,0.,0.,0.,2.7854,-0.00293,0.046631,0.246094,102,46,144,293
10.959,11:42:46.959,-9.851562,0.066406,0.061523,-0.014893,0.008301,-0.029785,0.,0.,0.,2.785889,-0.00293,0.046631,0.25,102,46,144,293
11.059,11:42:47.059,-9.889648,0.151367,0.070312,-0.010498,0.011475,-0.026367,0.,0.,0.,2.786377,-0.003174,0.046631,0.25,102,46,144,293
11.159,11:42:47.159,-9.889648,0.151367,0.070312,-0.010498,0.011475,-0.026367,0.,0.,0.,2.786377,-0.003174,0.046631,0.25,102,46,144,293
11.259,11:42:47.259,-9.841797,0.099609,0.094727,-0.011475,0.009521,-0.027588,0.,0.,0.,2.786865,-0.003174,0.046631,0.25,102,46,144,293
11.359,11:42:47.359,-9.841797,0.099609,0.094727,-0.011475,0.009521,-0.027588,0.,0.,0.,2.786865,-0.003174,0.046631,0.25,102,46,144,293
11.459,11:42:47.459,-9.917969,0.108398,0.051758,-0.013672,0.010498,-0.025391,0.,0.,0.,2.787109,-0.003174,0.046631,0.25,102,46,144,293
11.559,11:42:47.559,-9.917969,0.108398,0.051758,-0.013672,0.010498,-0.025391,0.,0.,0.,2.787109,-0.003174,0.046631,0.25,102,46,144,293
11.659,11:42:47.659,-9.917969,0.108398,0.051758,-0.013672,0.010498,-0.025391,0.,0.,0.,2.787109,-0.003174,0.046631,0.25,102,46,144,293
11.759,11:42:47.759,-9.947266,0.080078,0.041992,-0.012695,0.010498,-0.029785,0.,0.,0.,2.78833,-0.003174,0.046631,0.25,102,46,144,293
11.859,11:42:47.859,-9.947266,0.080078,0.041992,-0.012695,0.010498,-0.029785,0.,0.,0.,2.78833,-0.003174,0.046631,0.25,102,46,144,293
11.959,11:42:47.959,-9.870117,0.104492,0.018555,-0.011475,0.011475,-0.026367,0.,0.,0.,2.790527,-0.003418,0.046631,0.25,102,46,144,293
12.059,11:42:48.059,-9.932617,0.118164,0.061523,-0.011475,0.007324,-0.028564,0.,0.,0.,2.790771,-0.003418,0.046631,0.25,102,46,144,293
12.159,11:42:48.159,-9.889648,0.041992,0.099609,-0.011475,0.008301,-0.029785,0.,0.,0.,2.791504,-0.003418,0.046631,0.25,102,46,144,293
12.259,11:42:48.259,-9.889648,0.041992,0.099609,-0.011475,0.008301,-0.029785,0.,0.,0.,2.791504,-0.003418,0.046631,0.25,102,46,144,293
12.359,11:42:48.359,-9.889648,0.084961,0.013672,-0.012695,0.008301,-0.027588,0.,0.,0.,2.791748,-0.003418,0.046631,0.25,102,46,144,293
12.459,11:42:48.459,-9.889648,0.084961,0.013672,-0.012695,0.008301,-0.027588,0.,0.,0.,2.791748,-0.003418,0.046631,0.25,102,46,144,293
12.559,11:42:48.559,-9.866211,0.037109,0.037109,-0.014893,0.009521,-0.029785,0.,0.,0.,2.79248,-0.003418,0.046631,0.25,102,46,144,294
12.659,11:42:48.659,-9.827148,0.104492,0.123047,-0.013672,0.013672,-0.025391,0.,0.,0.,2.792725,-0.003418,0.046631,0.25,102,45,144,294
12.759,11:42:48.759,-10.,0.094727,0.066406,-0.012695,0.010498,-0.026367,0.,0.,0.,2.793701,-0.003418,0.046631,0.25,102,45,144,294
12.859,11:42:48.859,-9.870117,0.108398,0.037109,-0.012695,0.006348,-0.027588,0.,0.,0.,2.793945,-0.003418,0.046631,0.25,102,45,144,294
12.959,11:42:48.959,-9.818359,0.089844,0.018555,-0.013672,0.009521,-0.026367,0.,0.,0.,2.794189,-0.003418,0.046631,0.25,103,45,144,294
13.059,11:42:49.059,-9.818359,0.089844,0.018555,-0.013672,0.009521,-0.026367,0.,0.,0.,2.794189,-0.003418,0.046631,0.25,103,45,144,294
13.159,11:42:49.159,-9.879883,0.046875,0.061523,-0.011475,0.009521,-0.027588,0.,0.,0.,2.794434,-0.003418,0.046631,0.25,103,46,144,294
13.259,11:42:49.259,-9.879883,0.046875,0.061523,-0.011475,0.009521,-0.027588,0.,0.,0.,2.794434,-0.003418,0.046631,0.25,103,46,144,294
13.359,11:42:49.359,-9.879883,0.046875,0.061523,-0.011475,0.009521,-0.027588,0.,0.,0.,2.794434,-0.003418,0.046631,0.25,103,46,144,294
13.459,11:42:49.459,-9.904297,0.075195,0.046875,-0.012695,0.007324,-0.028564,0.,0.,0.,2.795166,-0.003418,0.046631,0.25,103,45,144,294
13.559,11:42:49.559,-9.904297,0.075195,0.046875,-0.012695,0.007324,-0.028564,0.,0.,0.,2.795166,-0.003418,0.046631,0.25,103,45,144,294
13.659,11:42:49.659,-9.904297,0.075195,0.046875,-0.012695,0.007324,-0.028564,0.,0.,0.,2.795166,-0.003418,0.046631,0.25,103,45,144,294
13.759,11:42:49.759,-9.904297,0.075195,0.046875,-0.012695,0.007324,-0.028564,0.,0.,0.,2.795166,-0.003418,0.046631,0.25,103,45,144,294
13.859,11:42:49.859,-9.975586,0.008789,0.113281,-0.013672,0.012695,-0.027588,0.,0.,0.,2.796387,-0.003662,0.046631,0.25,103,46,144,294
13.959,11:42:49.959,-9.975586,0.008789,0.113281,-0.013672,0.012695,-0.027588,0.,0.,0.,2.796387,-0.003662,0.046631,0.25,103,46,144,294
14.059,11:42:50.059,-9.84668,0.146484,0.080078,-0.015869,0.009521,-0.029785,0.,0.,0.,2.797119,-0.003662,0.046631,0.25,103,46,144,294
14.159,11:42:50.159,-9.813477,0.099609,0.051758,-0.014893,0.012695,-0.029785,0.,0.,0.,2.797363,-0.003662,0.046387,0.25,103,46,144,294
14.259,11:42:50.259,-9.894531,0.142578,0.137695,-0.012695,0.013672,-0.026367,0.,0.,0.,2.797607,-0.003906,0.046387,0.25,103,46,144,294
14.359,11:42:50.359,-9.942383,0.080078,0.056641,-0.012695,0.008301,-0.029785,0.,0.,0.,2.798096,-0.003906,0.046387,0.25,103,46,144,294
14.459,11:42:50.459,-9.942383,0.080078,0.056641,-0.012695,0.008301,-0.029785,0.,0.,0.,2.798096,-0.003906,0.046387,0.25,103,46,144,294
14.559,11:42:50.559,-9.866211,0.066406,0.023438,-0.010498,0.008301,-0.026367,0.,0.,0.,2.79834,-0.003906,0.046387,0.25,103,46,144,294
14.659,11:42:50.659,-9.866211,0.066406,0.023438,-0.010498,0.008301,-0.026367,0.,0.,0.,2.79834,-0.003906,0.046387,0.25,103,46,144,294
14.759,11:42:50.759,-9.904297,0.066406,0.056641,-0.012695,0.010498,-0.029785,0.,0.,0.,2.798828,-0.003906,0.046387,0.25,103,46,144,294
14.859,11:42:50.859,-9.861328,0.123047,0.013672,-0.013672,0.010498,-0.028564,0.,0.,0.,2.799316,-0.003906,0.046387,0.25,103,46,144,293
14.959,11:42:50.959,-9.879883,0.023438,0.041992,-0.012695,0.009521,-0.027588,0.,0.,0.,2.799805,-0.003906,0.046387,0.246094,103,46,144,293
15.059,11:42:51.059,-9.961914,0.094727,0.084961,-0.011475,0.010498,-0.028564,0.,0.,0.,2.800049,-0.003906,0.046387,0.25,103,46,144,293
15.159,11:42:51.159,-9.899414,0.15625,0.070312,-0.011475,0.011475,-0.028564,0.,0.,0.,2.800293,-0.003906,0.046387,0.25,103,46,144,293
15.259,11:42:51.259,-9.899414,0.15625,0.070312,-0.011475,0.011475,-0.028564,0.,0.,0.,2.800293,-0.003906,0.046387,0.25,103,46,144,293
15.359,11:42:51.359,-9.774414,0.104492,0.018555,-0.014893,0.009521,-0.027588,0.,0.,0.,2.800781,-0.003906,0.046387,0.25,103,46,144,293
15.459,11:42:51.459,-9.774414,0.104492,0.018555,-0.014893,0.009521,-0.027588,0.,0.,0.,2.800781,-0.003906,0.046387,0.25,103,46,144,293
15.559,11:42:51.559,-9.914062,0.094727,0.037109,-0.011475,0.010498,-0.027588,0.,0.,0.,2.801025,-0.003906,0.046387,0.25,103,46,144,293
15.659,11:42:51.659,-9.914062,0.094727,0.037109,-0.011475,0.010498,-0.027588,0.,0.,0.,2.801025,-0.003906,0.046387,0.25,103,46,144,293
15.759,11:42:51.759,-9.851562,0.066406,0.056641,-0.010498,0.011475,-0.027588,0.,0.,0.,2.80127,-0.003906,0.046387,0.25,103,46,144,293
15.859,11:42:51.859,-9.851562,0.066406,0.056641,-0.010498,0.011475,-0.027588,0.,0.,0.,2.80127,-0.003906,0.046387,0.25,103,46,144,293
15.959,11:42:51.959,-9.904297,0.118164,0.070312,-0.010498,0.011475,-0.027588,0.,0.,0.,2.801514,-0.003906,0.046387,0.25,103,46,144,293
16.059,11:42:52.059,-9.904297,0.118164,0.070312,-0.010498,0.011475,-0.027588,0.,0.,0.,2.801514,-0.003906,0.046387,0.25,103,46,144,293
16.159,11:42:52.159,-9.866211,0.132812,0.033203,-0.012695,0.007324,-0.027588,0.,0.,0.,2.801758,-0.003906,0.046387,0.25,103,46,144,293
16.259,11:42:52.259,-9.985352,0.023438,0.075195,-0.011475,0.008301,-0.027588,0.,0.,0.,2.802002,-0.003906,0.046387,0.25,103,46,144,293
16.359,11:42:52.359,-9.952148,0.104492,-0.008789,-0.012695,0.007324,-0.027588,0.,0.,0.,2.802246,-0.00415,0.046387,0.25,102,46,144,293
16.459,11:42:52.459,-9.899414,0.023438,0.094727,-0.011475,0.010498,-0.026367,0.,0.,0.,2.80249,-0.00415,0.046387,0.25,102,46,144,293
16.559,11:42:52.559,-9.866211,0.108398,0.046875,-0.014893,0.014893,-0.028564,0.,0.,0.,2.802734,-0.00415,0.046387,0.25,102,46,144,293
16.659,11:42:52.659,-9.866211,0.094727,0.051758,-0.012695,0.010498,-0.027588,0.,0.,0.,2.802979,-0.00415,0.046387,0.246094,103,46,144,293
16.759,11:42:52.759,-9.927734,0.080078,0.108398,-0.009521,0.011475,-0.025391,0.,0.,0.,2.803467,-0.00415,0.046387,0.25,103,46,144,293
16.859,11:42:52.859,-9.90918,0.02832,0.051758,-0.012695,0.009521,-0.029785,0.,0.,0.,2.803467,-0.00415,0.046387,0.25,103,46,144,293
16.959,11:42:52.959,-9.90918,0.02832,0.051758,-0.012695,0.009521,-0.029785,0.,0.,0.,2.803467,-0.00415,0.046387,0.25,103,46,144,293
17.059,11:42:53.059,-9.917969,0.132812,0.051758,-0.013672,0.006348,-0.026367,0.,0.,0.,2.803711,-0.00415,0.046387,0.25,103,46,144,293
17.159,11:42:53.159,-9.917969,0.132812,0.051758,-0.013672,0.006348,-0.026367,0.,0.,0.,2.803711,-0.00415,0.046387,0.25,103,46,144,293
17.259,11:42:53.259,-9.917969,0.132812,0.051758,-0.013672,0.006348,-0.026367,0.,0.,0.,2.803711,-0.00415,0.046387,0.25,103,46,144,293
17.359,11:42:53.359,-9.932617,0.137695,0.141602,-0.010498,0.011475,-0.026367,0.,0.,0.,2.804199,-0.00415,0.046387,0.25,102,46,144,293
17.459,11:42:53.459,-9.861328,0.080078,0.02832,-0.010498,0.007324,-0.029785,0.,0.,0.,2.804443,-0.00415,0.046387,0.25,102,46,144,293
17.559,11:42:53.559,-9.856445,0.066406,0.080078,-0.010498,0.006348,-0.027588,0.,0.,0.,2.804688,-0.00415,0.046387,0.25,102,46,144,293
17.659,11:42:53.659,-9.856445,0.066406,0.080078,-0.010498,0.006348,-0.027588,0.,0.,0.,2.804688,-0.00415,0.046387,0.25,102,46,144,293
17.759,11:42:53.759,-9.822266,0.142578,0.041992,-0.011475,0.011475,-0.027588,0.,0.,0.,2.805176,-0.00415,0.046387,0.246094,102,46,144,293
17.859,11:42:53.859,-9.822266,0.142578,0.041992,-0.011475,0.011475,-0.027588,0.,0.,0.,2.805176,-0.00415,0.046387,0.246094,102,46,144,293
17.959,11:42:53.959,-9.884766,0.084961,0.089844,-0.014893,0.007324,-0.027588,0.,0.,0.,2.80542,-0.00415,0.046387,0.25,102,46,144,293
18.059,11:42:54.059,-9.884766,0.084961,0.089844,-0.014893,0.007324,-0.027588,0.,0.,0.,2.80542,-0.00415,0.046387,0.25,102,46,144,293
18.159,11:42:54.159,-9.884766,0.084961,0.089844,-0.014893,0.007324,-0.027588,0.,0.,0.,2.80542,-0.00415,0.046387,0.25,102,46,144,293
18.259,11:42:54.259,-9.861328,0.12793,0.018555,-0.013672,0.011475,-0.029785,0.,0.,0.,2.805908,-0.004395,0.046387,0.25,102,46,144,293
18.359,11:42:54.359,-9.861328,0.12793,0.018555,-0.013672,0.011475,-0.029785,0.,0.,0.,2.805908,-0.004395,0.046387,0.25,102,46,144,293
18.459,11:42:54.459,-9.856445,0.118164,0.056641,-0.014893,0.010498,-0.029785,0.,0.,0.,2.806396,-0.004395,0.046387,0.25,102,46,144,293
18.559,11:42:54.559,-9.856445,0.118164,0.056641,-0.014893,0.010498,-0.029785,0.,0.,0.,2.806396,-0.004395,0.046387,0.25,102,46,144,293
18.659,11:42:54.659,-9.861328,0.099609,0.099609,-0.014893,0.011475,-0.025391,0.,0.,0.,2.806641,-0.004395,0.046387,0.246094,102,46,144,293
18.759,11:42:54.759,-9.861328,0.099609,0.099609,-0.014893,0.011475,-0.025391,0.,0.,0.,2.806641,-0.004395,0.046387,0.246094,102,46,144,293
18.859,11:42:54.859,-9.995117,0.113281,0.141602,-0.072266,0.014893,-0.02002,0.,0.,0.,2.806396,-0.00415,0.046387,0.25,102,46,144,293
18.959,11:42:54.959,-9.995117,0.113281,0.141602,-0.072266,0.014893,-0.02002,0.,0.,0.,2.806396,-0.00415,0.046387,0.25,102,46,144,293
19.059,11:42:55.059,-9.822266,0.023438,-0.308594,0.011475,0.051025,-0.078613,0.,0.,0.,2.808105,-0.004639,0.047119,0.246094,102,46,144,293
19.159,11:42:55.159,-9.55957,0.869141,-0.484375,-0.038086,0.006348,-0.066895,0.,0.,0.,2.80835,-0.004395,0.047119,0.25,102,46,144,293
19.259,11:42:55.259,-10.258789,-0.68457,-0.141602,-0.00415,-0.076416,0.015869,0.,0.,0.,2.808838,-0.004639,0.046875,0.246094,102,46,144,293
19.359,11:42:55.359,-10.047852,-0.489258,0.574219,-0.003174,0.072266,0.015869,0.,0.,0.,2.809082,-0.005127,0.046875,0.246094,102,46,144,293
19.459,11:42:55.459,-9.703125,1.164062,0.15625,-0.02002,0.030762,-0.033936,0.,0.,0.,2.809814,-0.004639,0.047119,0.25,103,46,144,293
19.559,11:42:55.559,-9.454102,-0.560547,-0.455078,0.012695,0.043457,-0.010498,0.,0.,0.,2.810059,-0.004639,0.047119,0.246094,103,46,144,293
19.659,11:42:55.659,-9.454102,-0.560547,-0.455078,0.012695,0.043457,-0.010498,0.,0.,0.,2.810059,-0.004639,0.047119,0.246094,103,46,144,293
19.759,11:42:55.759,-10.042969,0.308594,-0.588867,-0.033936,-0.074463,-0.128662,0.,0.,0.,2.810547,-0.004639,0.046875,0.246094,103,46,144,293
19.859,11:42:55.859,-10.957031,-0.251953,0.920898,0.000977,0.071289,0.109375,0.,0.,0.,2.810791,-0.004639,0.047119,0.25,103,46,144,293
19.959,11:42:55.959,-10.957031,-0.251953,0.920898,0.000977,0.071289,0.109375,0.,0.,0.,2.810791,-0.004639,0.047119,0.25,103,46,144,293
20.059,11:42:56.059,-9.78418,1.425781,-0.464844,-0.019043,0.127686,-0.046631,0.,0.,0.,2.811279,-0.005371,0.047363,0.246094,103,46,144,293
20.159,11:42:56.159,-10.770508,-0.68457,0.892578,-0.011475,-0.120117,-0.05835,0.,0.,0.,2.812012,-0.006104,0.046875,0.25,103,46,144,293
20.259,11:42:56.259,-9.49707,-0.041992,-0.640625,-0.012695,0.028564,-0.033936,0.,0.,0.,2.812256,-0.005371,0.047607,0.25,103,46,144,293
20.359,11:42:56.359,-11.125,0.137695,2.222656,-0.012695,0.083008,-0.041504,0.,0.,0.,2.812744,-0.004639,0.047119,0.25,104,46,144,293
20.459,11:42:56.459,-8.25293,1.026367,-2.084961,0.,-0.065918,-0.015869,0.,0.,0.,2.813232,-0.004639,0.047852,0.246094,104,46,144,293
20.559,11:42:56.559,-8.25293,1.026367,-2.084961,0.,-0.065918,-0.015869,0.,0.,0.,2.813232,-0.004639,0.047852,0.246094,104,46,144,293
20.659,11:42:56.659,-8.25293,1.026367,-2.084961,0.,-0.065918,-0.015869,0.,0.,0.,2.813232,-0.004639,0.047852,0.246094,104,46,144,293
20.759,11:42:56.759,-10.574219,1.049805,0.104492,0.001953,0.02124,-0.130859,0.,0.,0.,2.814941,-0.005371,0.047363,0.246094,104,46,144,293
20.859,11:42:56.859,-10.574219,1.049805,0.104492,0.001953,0.02124,-0.130859,0.,0.,0.,2.814941,-0.005371,0.047363,0.246094,104,46,144,293
20.959,11:42:56.959,-9.473633,0.631836,-0.77832,0.006348,-0.000977,-0.039307,0.,0.,0.,2.816406,-0.005371,0.047607,0.25,104,46,145,293
21.059,11:42:57.059,-9.473633,0.631836,-0.77832,0.006348,-0.000977,-0.039307,0.,0.,0.,2.816406,-0.005371,0.047607,0.25,104,46,145,293
21.159,11:42:57.159,-9.473633,0.631836,-0.77832,0.006348,-0.000977,-0.039307,0.,0.,0.,2.816406,-0.005371,0.047607,0.25,104,46,145,293
21.259,11:42:57.259,-10.550781,0.537109,-0.222656,-0.034912,-0.094482,-0.034912,0.,0.,0.,2.817139,-0.004883,0.047363,0.246094,105,46,145,293
21.359,11:42:57.359,-10.550781,0.537109,-0.222656,-0.034912,-0.094482,-0.034912,0.,0.,0.,2.817139,-0.004883,0.047363,0.246094,105,46,145,293
21.459,11:42:57.459,-10.114258,-0.974609,0.864258,0.015869,0.09668,0.089355,0.,0.,0.,2.817627,-0.005371,0.047607,0.246094,106,46,145,293
21.559,11:42:57.559,-9.291016,1.616211,-0.237305,-0.022217,0.016846,-0.090332,0.,0.,0.,2.817871,-0.005371,0.047852,0.246094,104,46,145,293
21.659,11:42:57.659,-10.521484,-0.023438,1.581055,-0.008301,0.012695,0.026367,0.,0.,0.,2.818359,-0.005615,0.046387,0.246094,104,46,144,293
21.759,11:42:57.759,-10.521484,-0.023438,1.581055,-0.008301,0.012695,0.026367,0.,0.,0.,2.818359,-0.005615,0.046387,0.246094,104,46,144,293
21.859,11:42:57.859,-9.942383,0.146484,-0.735352,-0.00415,-0.128662,-0.028564,0.,0.,0.,2.818604,-0.006348,0.046143,0.246094,104,46,144,293
21.959,11:42:57.959,-9.119141,0.46582,-0.569336,-0.025391,0.0979,0.005127,0.,0.,0.,2.818848,-0.006104,0.046631,0.246094,104,46,144,293
22.059,11:42:58.059,-9.90918,-0.217773,0.151367,0.019043,-0.009521,-0.039307,0.,0.,0.,2.819336,-0.005859,0.046143,0.246094,104,46,144,293
22.159,11:42:58.159,-9.286133,-0.260742,-1.291016,-0.016846,-0.075439,-0.073242,0.,0.,0.,2.819824,-0.005127,0.046387,0.246094,104,46,144,293
22.259,11:42:58.259,-9.856445,-0.916992,0.075195,-0.007324,0.137207,-0.02124,0.,0.,0.,2.820068,-0.005127,0.046387,0.246094,104,46,145,293
22.359,11:42:58.359,-9.041992,0.179688,0.617188,-0.006348,0.056396,-0.071289,0.,0.,0.,2.820312,-0.005127,0.046143,0.246094,104,46,145,293
22.459,11:42:58.459,-10.755859,0.384766,0.446289,-0.014893,0.006348,-0.066895,0.,0.,0.,2.821045,-0.004883,0.046143,0.246094,104,46,145,293
22.559,11:42:58.559,-10.755859,0.384766,0.446289,-0.014893,0.006348,-0.066895,0.,0.,0.,2.821045,-0.004883,0.046143,0.246094,104,46,145,293
22.659,11:42:58.659,-9.147461,0.646484,1.101562,-0.016846,0.045654,-0.025391,0.,0.,0.,2.821289,-0.005371,0.046387,0.246094,104,46,147,293
22.759,11:42:58.759,-11.115234,-0.118164,0.792969,0.00415,-0.003174,0.019043,0.,0.,0.,2.821533,-0.005371,0.046387,0.246094,104,46,146,293
22.859,11:42:58.859,-9.750977,-0.365234,0.522461,0.000977,0.046631,0.039307,0.,0.,0.,2.82251,-0.005127,0.046631,0.246094,105,46,145,293
22.959,11:42:58.959,-9.917969,-0.018555,-0.413086,-0.030762,-0.04248,-0.063721,0.,0.,0.,2.824219,-0.005615,0.046875,0.246094,105,46,145,293
23.059,11:42:59.059,-10.861328,-0.132812,1.068359,-0.013672,0.108398,-0.054199,0.,0.,0.,2.824707,-0.005127,0.046875,0.246094,105,46,144,293
23.159,11:42:59.159,-9.368164,1.259766,0.426758,-0.024414,0.022217,-0.025391,0.,0.,0.,2.824951,-0.005127,0.047119,0.246094,105,46,144,293
23.259,11:42:59.259,-10.526367,0.56543,0.897461,-0.023193,-0.007324,-0.003174,0.,0.,0.,2.824951,-0.005615,0.046875,0.246094,105,46,144,293
23.359,11:42:59.359,-10.133789,0.217773,-0.488281,-0.016846,-0.103027,-0.038086,0.,0.,0.,2.825195,-0.005859,0.046875,0.246094,105,46,144,293
23.459,11:42:59.459,-10.133789,0.217773,-0.488281,-0.016846,-0.103027,-0.038086,0.,0.,0.,2.825195,-0.005859,0.046875,0.246094,105,46,144,293
23.559,11:42:59.559,-9.40625,0.265625,0.146484,-0.014893,0.092529,0.016846,0.,0.,0.,2.825928,-0.005615,0.047607,0.246094,105,46,145,293
23.659,11:42:59.659,-9.40625,0.265625,0.146484,-0.014893,0.092529,0.016846,0.,0.,0.,2.825928,-0.005615,0.047607,0.246094,105,46,145,293
23.759,11:42:59.759,-10.166992,-0.170898,0.588867,0.009521,-0.014893,0.006348,0.,0.,0.,2.826172,-0.006348,0.047119,0.246094,104,46,145,293
23.859,11:42:59.859,-10.166992,-0.170898,0.588867,0.009521,-0.014893,0.006348,0.,0.,0.,2.826172,-0.006348,0.047119,0.246094,104,46,145,293
23.959,11:42:59.959,-9.425781,-0.137695,-1.889648,-0.037109,-0.064697,-0.040283,0.,0.,0.,2.826172,-0.006104,0.047363,0.246094,104,46,145,293
24.059,11:43:0.059,-10.133789,-0.817383,0.451172,0.000977,0.121094,-0.054199,0.,0.,0.,2.82666,-0.006592,0.047607,0.246094,104,46,145,293
24.159,11:43:0.159,-8.913086,0.199219,-0.512695,-0.000977,0.028564,-0.087158,0.,0.,0.,2.827148,-0.005615,0.047363,0.246094,104,46,146,293
24.259,11:43:0.259,-8.913086,0.199219,-0.512695,-0.000977,0.028564,-0.087158,0.,0.,0.,2.827148,-0.005615,0.047363,0.246094,104,46,146,293
24.359,11:43:0.359,-9.957031,-0.608398,0.041992,-0.031738,0.007324,-0.037109,0.,0.,0.,2.827637,-0.005371,0.047363,0.246094,105,46,146,293
24.459,11:43:0.459,-10.009766,-0.123047,-0.003906,0.001953,0.,-0.032959,0.,0.,0.,2.827881,-0.005615,0.047119,0.246094,105,46,146,293
24.559,11:43:0.559,-9.975586,0.037109,-0.569336,-0.033936,-0.044678,-0.003174,0.,0.,0.,2.82959,-0.005859,0.047119,0.246094,106,46,145,293
24.659,11:43:0.659,-9.975586,0.037109,-0.569336,-0.033936,-0.044678,-0.003174,0.,0.,0.,2.82959,-0.005859,0.047119,0.246094,106,46,145,293
24.759,11:43:0.759,-9.741211,-0.588867,-0.522461,0.006348,-0.045654,-0.028564,0.,0.,0.,2.829834,-0.005859,0.047363,0.246094,105,46,146,293
24.859,11:43:0.859,-9.741211,-0.588867,-0.522461,0.006348,-0.045654,-0.028564,0.,0.,0.,2.829834,-0.005859,0.047363,0.246094,105,46,146,293
24.959,11:43:0.959,-8.424805,0.313477,-0.839844,-0.018066,0.093506,-0.008301,0.,0.,0.,2.830322,-0.005615,0.048096,0.246094,105,46,146,293
25.059,11:43:1.059,-10.057617,-0.479492,0.645508,0.007324,0.024414,-0.026367,0.,0.,0.,2.830811,-0.006104,0.047607,0.246094,105,46,145,293
25.159,11:43:1.159,-9.454102,-0.037109,-0.949219,-0.034912,-0.038086,-0.089355,0.,0.,0.,2.831055,-0.005371,0.047607,0.246094,105,46,145,293
25.259,11:43:1.259,-10.526367,-0.40332,0.683594,-0.016846,0.153076,-0.065918,0.,0.,0.,2.831299,-0.005615,0.047852,0.246094,107,46,145,293
25.359,11:43:1.359,-10.526367,-0.40332,0.683594,-0.016846,0.153076,-0.065918,0.,0.,0.,2.831299,-0.005615,0.047852,0.246094,107,46,145,293
25.459,11:43:1.459,-10.612305,0.280273,0.668945,-0.007324,-0.029785,-0.043457,0.,0.,0.,2.832031,-0.005615,0.047852,0.246094,105,46,145,293
25.559,11:43:1.559,-10.612305,0.280273,0.668945,-0.007324,-0.029785,-0.043457,0.,0.,0.,2.832031,-0.005615,0.047852,0.246094,105,46,145,293
25.659,11:43:1.659,-10.55957,0.023438,1.219727,-0.010498,-0.026367,0.018066,0.,0.,0.,2.83252,-0.006104,0.047852,0.246094,106,46,145,293
25.759,11:43:1.759,-8.999023,0.18457,-0.498047,-0.00415,-0.014893,-0.048828,0.,0.,0.,2.83374,-0.005859,0.048584,0.246094,105,46,145,293
25.859,11:43:1.859,-8.999023,0.18457,-0.498047,-0.00415,-0.014893,-0.048828,0.,0.,0.,2.83374,-0.005859,0.048584,0.246094,105,46,145,293
25.959,11:43:1.959,-8.999023,0.18457,-0.498047,-0.00415,-0.014893,-0.048828,0.,0.,0.,2.83374,-0.005859,0.048584,0.246094,105,46,145,293
26.059,11:43:2.059,-8.553711,0.080078,-0.602539,-0.02002,-0.04248,-0.02124,0.,0.,0.,2.836426,-0.005859,0.048828,0.246094,105,46,145,294
26.159,11:43:2.159,-8.553711,0.080078,-0.602539,-0.02002,-0.04248,-0.02124,0.,0.,0.,2.836426,-0.005859,0.048828,0.246094,105,46,145,294
26.259,11:43:2.259,-9.209961,0.379883,-0.859375,-0.016846,0.127686,-0.009521,0.,0.,0.,2.837158,-0.005859,0.049805,0.246094,106,46,145,294
26.359,11:43:2.359,-9.209961,0.379883,-0.859375,-0.016846,0.127686,-0.009521,0.,0.,0.,2.837158,-0.005859,0.049805,0.246094,106,46,145,294
26.459,11:43:2.459,-10.31543,0.104492,1.999023,0.000977,0.052002,-0.043457,0.,0.,0.,2.837402,-0.006592,0.049316,0.246094,106,46,146,294
26.559,11:43:2.559,-11.56543,0.384766,0.18457,-0.02124,0.011475,-0.041504,0.,0.,0.,2.838135,-0.006836,0.049316,0.246094,109,46,145,293
26.659,11:43:2.659,-9.487305,1.036133,-0.070312,-0.032959,-0.033936,-0.094482,0.,0.,0.,2.838135,-0.006104,0.049805,0.246094,109,46,145,293
26.759,11:43:2.759,-10.191406,0.499023,0.854492,-0.010498,0.102051,0.02124,0.,0.,0.,2.838379,-0.005859,0.050049,0.246094,106,46,146,293
26.859,11:43:2.859,-9.693359,0.251953,0.341797,-0.012695,-0.137207,-0.044678,0.,0.,0.,2.838623,-0.005859,0.049805,0.246094,106,46,145,293
26.959,11:43:2.959,-9.851562,-0.479492,-0.925781,-0.022217,-0.028564,0.008301,0.,0.,0.,2.838867,-0.005615,0.050293,0.246094,106,46,145,293
27.059,11:43:3.059,-9.851562,-0.479492,-0.925781,-0.022217,-0.028564,0.008301,0.,0.,0.,2.838867,-0.005615,0.050293,0.246094,106,46,145,293
27.159,11:43:3.159,-8.439453,0.099609,-1.129883,-0.030762,0.033936,-0.022217,0.,0.,0.,2.839355,-0.005371,0.050537,0.246094,108,46,145,294
27.259,11:43:3.259,-8.439453,0.099609,-1.129883,-0.030762,0.033936,-0.022217,0.,0.,0.,2.839355,-0.005371,0.050537,0.246094,108,46,145,294
27.359,11:43:3.359,-9.521484,-0.988281,1.642578,0.005127,0.07959,0.00415,0.,0.,0.,2.8396,-0.005859,0.050293,0.246094,109,46,145,294
27.459,11:43:3.459,-9.521484,-0.988281,1.642578,0.005127,0.07959,0.00415,0.,0.,0.,2.8396,-0.005859,0.050293,0.246094,109,46,145,294
27.559,11:43:3.559,-9.607422,0.308594,-0.279297,-0.003174,-0.029785,-0.067871,0.,0.,0.,2.839844,-0.006104,0.050293,0.246094,109,46,146,294
27.659,11:43:3.659,-11.507812,-0.089844,-0.008789,-0.024414,0.034912,-0.083008,0.,0.,0.,2.840088,-0.005615,0.050293,0.246094,108,46,146,294
27.759,11:43:3.759,-10.100586,0.545898,1.253906,-0.012695,0.039307,-0.081787,0.,0.,0.,2.840332,-0.005859,0.050293,0.246094,108,46,146,294
27.859,11:43:3.859,-9.980469,0.698242,0.255859,-0.024414,0.066895,-0.011475,0.,0.,0.,2.840576,-0.005127,0.050537,0.246094,107,46,145,294
27.959,11:43:3.959,-10.737305,-0.066406,0.797852,-0.012695,-0.102051,-0.016846,0.,0.,0.,2.840576,-0.005371,0.050293,0.246094,106,46,145,294
28.059,11:43:4.059,-9.28125,0.084961,-0.792969,-0.037109,-0.013672,0.00415,0.,0.,0.,2.84082,-0.005127,0.050537,0.246094,105,46,145,294
28.159,11:43:4.159,-10.31543,-0.270508,-0.569336,-0.018066,0.047852,0.028564,0.,0.,0.,2.841309,-0.005859,0.050537,0.246094,105,46,145,294
28.259,11:43:4.259,-8.089844,-0.061523,-0.166016,-0.023193,-0.019043,-0.00415,0.,0.,0.,2.841309,-0.006104,0.050537,0.246094,105,46,145,295
28.359,11:43:4.359,-9.645508,-0.741211,0.902344,0.006348,0.108398,0.034912,0.,0.,0.,2.841553,-0.006592,0.050537,0.246094,107,46,145,294
28.459,11:43:4.459,-9.645508,-0.741211,0.902344,0.006348,0.108398,0.034912,0.,0.,0.,2.841553,-0.006592,0.050537,0.246094,107,46,145,294
28.559,11:43:4.559,-9.922852,-0.170898,-0.831055,-0.012695,-0.061523,-0.061523,0.,0.,0.,2.841797,-0.006348,0.050293,0.246094,107,46,145,294
28.659,11:43:4.659,-9.922852,-0.170898,-0.831055,-0.012695,-0.061523,-0.061523,0.,0.,0.,2.841797,-0.006348,0.050293,0.246094,107,46,145,294
28.759,11:43:4.759,-10.219727,0.066406,-0.075195,-0.031738,0.095703,-0.067871,0.,0.,0.,2.841797,-0.006348,0.050781,0.246094,108,46,145,294
28.859,11:43:4.859,-10.219727,0.066406,-0.075195,-0.031738,0.095703,-0.067871,0.,0.,0.,2.841797,-0.006348,0.050781,0.246094,108,46,145,294
28.959,11:43:4.959,-10.158203,0.807617,0.849609,-0.011475,0.091309,-0.076416,0.,0.,0.,2.842041,-0.006104,0.050537,0.246094,108,46,145,295
29.059,11:43:5.059,-10.158203,0.807617,0.849609,-0.011475,0.091309,-0.076416,0.,0.,0.,2.842041,-0.006104,0.050537,0.246094,108,46,145,295
29.159,11:43:5.159,-9.597656,0.945312,0.379883,-0.052002,-0.02002,-0.041504,0.,0.,0.,2.842285,-0.005615,0.050537,0.25,109,46,145,295
29.259,11:43:5.259,-9.597656,0.945312,0.379883,-0.052002,-0.02002,-0.041504,0.,0.,0.,2.842285,-0.005615,0.050537,0.25,109,46,145,295
29.359,11:43:5.359,-9.597656,0.945312,0.379883,-0.052002,-0.02002,-0.041504,0.,0.,0.,2.842285,-0.005615,0.050537,0.25,109,46,145,295
29.459,11:43:5.459,-9.798828,0.550781,-1.813477,-0.032959,-0.099854,-0.019043,0.,0.,0.,2.842773,-0.005859,0.051025,0.25,106,46,145,296
29.559,11:43:5.559,-9.798828,0.550781,-1.813477,-0.032959,-0.099854,-0.019043,0.,0.,0.,2.842773,-0.005859,0.051025,0.25,106,46,145,296
29.659,11:43:5.659,-10.458984,-0.265625,-0.166016,-0.007324,0.031738,-0.005127,0.,0.,0.,2.843262,-0.005859,0.051025,0.246094,105,46,145,296
29.759,11:43:5.759,-10.458984,-0.265625,-0.166016,-0.007324,0.031738,-0.005127,0.,0.,0.,2.843262,-0.005859,0.051025,0.246094,105,46,145,296
29.859,11:43:5.859,-8.668945,0.40332,-0.308594,-0.008301,0.038086,-0.00415,0.,0.,0.,2.843262,-0.005859,0.051025,0.246094,105,46,145,295
29.959,11:43:5.959,-8.668945,0.40332,-0.308594,-0.008301,0.038086,-0.00415,0.,0.,0.,2.843262,-0.005859,0.051025,0.246094,105,46,145,295
30.059,11:43:6.059,-8.668945,0.40332,-0.308594,-0.008301,0.038086,-0.00415,0.,0.,0.,2.843262,-0.005859,0.051025,0.246094,105,46,145,295
30.159,11:43:6.159,-9.544922,-0.056641,-1.671875,-0.030762,0.045654,-0.033936,0.,0.,0.,2.844238,-0.005859,0.05127,0.246094,105,46,146,297
30.259,11:43:6.259,-9.544922,-0.056641,-1.671875,-0.030762,0.045654,-0.033936,0.,0.,0.,2.844238,-0.005859,0.05127,0.246094,105,46,146,297
30.359,11:43:6.359,-11.09082,-0.12793,0.34668,0.011475,0.027588,-0.084961,0.,0.,0.,2.844238,-0.005859,0.051025,0.246094,106,46,145,296
30.459,11:43:6.459,-11.09082,-0.12793,0.34668,0.011475,0.027588,-0.084961,0.,0.,0.,2.844238,-0.005859,0.051025,0.246094,106,46,145,296
30.559,11:43:6.559,-9.262695,0.717773,0.555664,-0.037109,0.075439,-0.026367,0.,0.,0.,2.844238,-0.005615,0.051025,0.246094,105,46,145,295
30.659,11:43:6.659,-10.928711,0.394531,1.044922,0.,0.095703,0.001953,0.,0.,0.,2.844482,-0.006104,0.051025,0.246094,105,46,145,295
30.759,11:43:6.759,-10.018555,0.484375,0.731445,-0.025391,-0.123291,-0.02002,0.,0.,0.,2.844727,-0.005859,0.051025,0.246094,107,46,145,295
30.859,11:43:6.859,-9.569336,-0.280273,0.87793,0.013672,0.07959,0.023193,0.,0.,0.,2.845703,-0.006592,0.051758,0.246094,109,46,146,294
30.959,11:43:6.959,-8.975586,-0.166016,-0.34668,-0.007324,-0.028564,-0.04248,0.,0.,0.,2.845947,-0.006592,0.051758,0.246094,109,46,146,294
31.059,11:43:7.059,-8.975586,-0.166016,-0.34668,-0.007324,-0.028564,-0.04248,0.,0.,0.,2.845947,-0.006592,0.051758,0.246094,109,46,146,294
31.159,11:43:7.159,-10.732422,-0.499023,0.094727,0.010498,0.105225,-0.033936,0.,0.,0.,2.846191,-0.006104,0.052002,0.246094,107,46,146,294
31.259,11:43:7.259,-10.732422,-0.499023,0.094727,0.010498,0.105225,-0.033936,0.,0.,0.,2.846191,-0.006104,0.052002,0.246094,107,46,146,294
31.359,11:43:7.359,-10.138672,0.232422,-0.773438,-0.02002,-0.023193,-0.095703,0.,0.,0.,2.846191,-0.005859,0.052002,0.25,106,46,146,294
31.459,11:43:7.459,-10.138672,0.232422,-0.773438,-0.02002,-0.023193,-0.095703,0.,0.,0.,2.846191,-0.005859,0.052002,0.25,106,46,146,294
31.559,11:43:7.559,-10.435547,0.474609,0.773438,-0.012695,0.153076,0.025391,0.,0.,0.,2.846191,-0.006104,0.052002,0.246094,105,46,146,294
31.659,11:43:7.659,-10.018555,1.117188,0.806641,-0.015869,0.030762,-0.051025,0.,0.,0.,2.846436,-0.006592,0.052002,0.246094,105,46,145,294
31.759,11:43:7.759,-9.477539,0.59375,1.091797,-0.030762,0.026367,-0.025391,0.,0.,0.,2.846924,-0.006592,0.052002,0.246094,107,46,145,294
31.859,11:43:7.859,-10.866211,0.479492,1.424805,0.000977,-0.006348,-0.032959,0.,0.,0.,2.846924,-0.006592,0.051758,0.246094,109,46,145,295
31.959,11:43:7.959,-10.023438,0.665039,-1.400391,-0.028564,-0.157471,-0.076416,0.,0.,0.,2.847168,-0.006592,0.052002,0.246094,107,46,145,296
32.059,11:43:8.059,-10.545898,0.071289,-0.194336,-0.015869,0.039307,-0.025391,0.,0.,0.,2.847412,-0.005859,0.05249,0.246094,107,46,145,296
32.159,11:43:8.159,-10.545898,0.071289,-0.194336,-0.015869,0.039307,-0.025391,0.,0.,0.,2.847412,-0.005859,0.05249,0.246094,107,46,145,296
32.259,11:43:8.259,-9.980469,0.260742,-0.574219,-0.00415,-0.057373,-0.049805,0.,0.,0.,2.847412,-0.005615,0.052246,0.246094,105,46,145,295
32.359,11:43:8.359,-9.980469,0.260742,-0.574219,-0.00415,-0.057373,-0.049805,0.,0.,0.,2.847412,-0.005615,0.052246,0.246094,105,46,145,295
32.459,11:43:8.459,-8.745117,-0.175781,0.40332,-0.011475,0.090332,0.,0.,0.,0.,2.8479,-0.005859,0.052734,0.246094,106,46,145,294
32.559,11:43:8.559,-8.745117,-0.175781,0.40332,-0.011475,0.090332,0.,0.,0.,0.,2.8479,-0.005859,0.052734,0.246094,106,46,145,294
32.659,11:43:8.659,-9.665039,-0.217773,0.484375,0.012695,-0.003174,-0.011475,0.,0.,0.,2.8479,-0.006104,0.052246,0.246094,109,46,145,294
32.759,11:43:8.759,-9.665039,-0.217773,0.484375,0.012695,-0.003174,-0.011475,0.,0.,0.,2.8479,-0.006104,0.052246,0.246094,109,46,145,294
32.859,11:43:8.859,-8.601562,-0.479492,-0.279297,-0.008301,-0.077637,-0.054199,0.,0.,0.,2.8479,-0.006348,0.05249,0.25,109,46,145,294
32.959,11:43:8.959,-10.790039,0.051758,0.90625,-0.039307,0.146729,-0.070068,0.,0.,0.,2.848633,-0.005859,0.052734,0.246094,106,46,146,294
33.059,11:43:9.059,-10.790039,0.051758,0.90625,-0.039307,0.146729,-0.070068,0.,0.,0.,2.848633,-0.005859,0.052734,0.246094,106,46,146,294
33.159,11:43:9.159,-10.790039,0.051758,0.90625,-0.039307,0.146729,-0.070068,0.,0.,0.,2.848633,-0.005859,0.052734,0.246094,106,46,146,294
33.259,11:43:9.259,-9.995117,0.375,0.740234,-0.016846,0.005127,-0.02124,0.,0.,0.,2.848633,-0.005615,0.052734,0.246094,108,46,146,294
33.359,11:43:9.359,-9.995117,0.375,0.740234,-0.016846,0.005127,-0.02124,0.,0.,0.,2.848633,-0.005615,0.052734,0.246094,108,46,146,294
33.459,11:43:9.459,-10.62207,0.213867,0.260742,0.009521,-0.091309,-0.033936,0.,0.,0.,2.848633,-0.005615,0.052734,0.246094,109,46,146,296
33.559,11:43:9.559,-9.650391,0.033203,-1.362305,-0.043457,-0.107422,-0.025391,0.,0.,0.,2.848877,-0.005371,0.052979,0.246094,109,46,146,297
33.659,11:43:9.659,-10.59375,-0.194336,-0.15625,0.000977,0.037109,0.023193,0.,0.,0.,2.849121,-0.005371,0.053223,0.246094,109,46,146,297
33.759,11:43:9.759,-8.688477,0.099609,-1.201172,-0.046631,-0.028564,-0.011475,0.,0.,0.,2.849365,-0.005615,0.053467,0.25,106,46,146,297
33.859,11:43:9.859,-8.96582,-0.018555,-0.056641,0.006348,-0.012695,-0.006348,0.,0.,0.,2.849121,-0.005859,0.053223,0.246094,104,46,147,297
33.959,11:43:9.959,-10.282227,-0.522461,0.517578,-0.006348,0.044678,-0.001953,0.,0.,0.,2.849121,-0.005859,0.053223,0.25,104,46,145,297
34.059,11:43:10.059,-10.742188,0.237305,0.075195,0.006348,-0.027588,-0.028564,0.,0.,0.,2.849365,-0.005859,0.053223,0.246094,106,46,145,296
34.159,11:43:10.159,-10.143555,0.522461,-0.617188,-0.037109,-0.003174,-0.012695,0.,0.,0.,2.849365,-0.005859,0.053467,0.25,106,46,145,295
34.259,11:43:10.259,-11.210938,0.436523,0.564453,0.006348,0.11792,-0.024414,0.,0.,0.,2.849365,-0.006104,0.053467,0.246094,105,46,145,294
34.359,11:43:10.359,-9.401367,1.021484,-0.360352,-0.041504,-0.022217,-0.034912,0.,0.,0.,2.849365,-0.006104,0.053467,0.246094,105,46,145,293
34.459,11:43:10.459,-9.401367,1.021484,-0.360352,-0.041504,-0.022217,-0.034912,0.,0.,0.,2.849365,-0.006104,0.053467,0.246094,105,46,145,293
34.559,11:43:10.559,-10.,-0.066406,1.253906,-0.022217,0.112793,0.031738,0.,0.,0.,2.849854,-0.005859,0.053711,0.25,106,46,145,293
34.659,11:43:10.659,-9.277344,0.436523,0.222656,0.003174,-0.088135,-0.02002,0.,0.,0.,2.849854,-0.006104,0.053711,0.246094,106,46,145,294
34.759,11:43:10.759,-9.55957,-0.916992,-0.008789,0.003174,0.016846,0.029785,0.,0.,0.,2.850098,-0.006104,0.053955,0.246094,106,46,146,293
34.859,11:43:10.859,-10.158203,-0.555664,-0.811523,-0.001953,-0.067871,-0.02002,0.,0.,0.,2.849854,-0.006104,0.053711,0.246094,105,46,145,293
34.959,11:43:10.959,-10.158203,-0.555664,-0.811523,-0.001953,-0.067871,-0.02002,0.,0.,0.,2.849854,-0.006104,0.053711,0.246094,105,46,145,293
35.059,11:43:11.059,-10.813477,-0.275391,-0.370117,0.001953,0.119141,-0.032959,0.,0.,0.,2.850098,-0.006104,0.054199,0.246094,107,46,145,292
35.159,11:43:11.159,-9.506836,0.774414,0.417969,-0.025391,0.05835,-0.074463,0.,0.,0.,2.850342,-0.005859,0.054199,0.246094,110,46,146,292
35.259,11:43:11.259,-10.450195,0.113281,0.174805,-0.009521,0.008301,0.049805,0.,0.,0.,2.850586,-0.005859,0.054199,0.25,108,46,145,293
35.359,11:43:11.359,-10.450195,0.113281,0.174805,-0.009521,0.008301,0.049805,0.,0.,0.,2.850586,-0.005859,0.054199,0.25,108,46,145,293
35.459,11:43:11.459,-10.641602,-0.698242,-0.697266,0.000977,-0.008301,-0.015869,0.,0.,0.,2.850586,-0.006348,0.054443,0.246094,104,46,145,294
35.559,11:43:11.559,-10.641602,-0.698242,-0.697266,0.000977,-0.008301,-0.015869,0.,0.,0.,2.850586,-0.006348,0.054443,0.246094,104,46,145,294
35.659,11:43:11.659,-8.654297,0.018555,-0.735352,-0.007324,0.045654,-0.063721,0.,0.,0.,2.850586,-0.006348,0.054443,0.246094,105,46,148,295
35.759,11:43:11.759,-8.654297,0.018555,-0.735352,-0.007324,0.045654,-0.063721,0.,0.,0.,2.850586,-0.006348,0.054443,0.246094,105,46,148,295
35.859,11:43:11.859,-10.267578,0.802734,0.831055,-0.012695,0.098877,-0.049805,0.,0.,0.,2.851074,-0.006348,0.054443,0.25,110,46,145,294
35.959,11:43:11.959,-10.267578,0.802734,0.831055,-0.012695,0.098877,-0.049805,0.,0.,0.,2.851074,-0.006348,0.054443,0.25,110,46,145,294
36.059,11:43:12.059,-10.55957,0.265625,1.733398,-0.010498,-0.026367,-0.052002,0.,0.,0.,2.851074,-0.006104,0.054199,0.246094,107,46,145,294
36.159,11:43:12.159,-10.55957,0.265625,1.733398,-0.010498,-0.026367,-0.052002,0.,0.,0.,2.851074,-0.006104,0.054199,0.246094,107,46,145,294
36.259,11:43:12.259,-9.703125,0.964844,-0.911133,-0.034912,-0.07959,-0.037109,0.,0.,0.,2.851074,-0.006104,0.054688,0.246094,106,46,144,294
36.359,11:43:12.359,-9.703125,0.964844,-0.911133,-0.034912,-0.07959,-0.037109,0.,0.,0.,2.851074,-0.006104,0.054688,0.246094,106,46,144,294
36.459,11:43:12.459,-11.095703,-0.270508,0.678711,0.005127,-0.041504,-0.02124,0.,0.,0.,2.851074,-0.006104,0.054443,0.25,105,46,144,295
36.559,11:43:12.559,-9.473633,0.394531,-2.231445,-0.033936,-0.076416,-0.027588,0.,0.,0.,2.851318,-0.006104,0.055176,0.246094,105,46,144,295
36.659,11:43:12.659,-10.076172,-0.503906,-0.583984,-0.016846,0.024414,-0.02002,0.,0.,0.,2.851318,-0.006104,0.054932,0.246094,105,46,144,295
36.759,11:43:12.759,-10.076172,-0.503906,-0.583984,-0.016846,0.024414,-0.02002,0.,0.,0.,2.851318,-0.006104,0.054932,0.246094,105,46,144,295
36.859,11:43:12.859,-9.693359,0.089844,0.826172,0.006348,0.095703,-0.065918,0.,0.,0.,2.851562,-0.005859,0.054688,0.246094,105,46,144,296
36.959,11:43:12.959,-8.875,0.018555,0.707031,-0.024414,0.029785,-0.073242,0.,0.,0.,2.851807,-0.005371,0.054443,0.246094,105,46,145,294
37.059,11:43:13.059,-10.62207,0.123047,1.376953,0.001953,0.086182,-0.064697,0.,0.,0.,2.851807,-0.006104,0.054688,0.246094,106,46,145,294
37.159,11:43:13.159,-9.875,0.650391,0.275391,-0.026367,-0.060547,-0.073242,0.,0.,0.,2.851807,-0.005859,0.054932,0.246094,107,46,146,294
37.259,11:43:13.259,-10.358398,-0.066406,-0.12793,-0.02002,-0.116943,-0.049805,0.,0.,0.,2.851807,-0.005859,0.055176,0.25,109,46,145,296
37.359,11:43:13.359,-10.052734,-0.094727,-1.257812,-0.016846,0.049805,0.022217,0.,0.,0.,2.851807,-0.005615,0.055908,0.25,109,46,145,294
37.459,11:43:13.459,-10.052734,-0.094727,-1.257812,-0.016846,0.049805,0.022217,0.,0.,0.,2.851807,-0.005615,0.055908,0.25,109,46,145,294
37.559,11:43:13.559,-8.616211,0.099609,-1.448242,-0.030762,0.090332,-0.040283,0.,0.,0.,2.852295,-0.005615,0.056396,0.25,108,46,146,293
37.659,11:43:13.659,-8.616211,0.099609,-1.448242,-0.030762,0.090332,-0.040283,0.,0.,0.,2.852295,-0.005615,0.056396,0.25,108,46,146,293
37.759,11:43:13.759,-9.789062,0.850586,0.90625,-0.003174,0.000977,-0.037109,0.,0.,0.,2.852539,-0.005371,0.055908,0.246094,109,46,145,293
37.859,11:43:13.859,-10.310547,0.370117,0.469727,-0.027588,-0.027588,0.018066,0.,0.,0.,2.852539,-0.005615,0.056152,0.246094,109,46,145,293
37.959,11:43:13.959,-10.066406,0.037109,0.930664,0.006348,-0.04248,0.003174,0.,0.,0.,2.852539,-0.005859,0.055908,0.246094,108,46,145,293
38.059,11:43:14.059,-9.338867,-0.075195,-0.541016,-0.022217,-0.114746,0.009521,0.,0.,0.,2.852539,-0.005859,0.056152,0.246094,105,46,146,293
38.159,11:43:14.159,-9.338867,-0.075195,-0.541016,-0.022217,-0.114746,0.009521,0.,0.,0.,2.852539,-0.005859,0.056152,0.246094,105,46,146,293
38.259,11:43:14.259,-10.402344,-0.456055,-0.53125,0.009521,-0.032959,0.013672,0.,0.,0.,2.852539,-0.005859,0.056152,0.246094,105,46,146,293
38.359,11:43:14.359,-10.402344,-0.456055,-0.53125,0.009521,-0.032959,0.013672,0.,0.,0.,2.852539,-0.005859,0.056152,0.246094,105,46,146,293
38.459,11:43:14.459,-9.214844,-0.394531,-1.47168,-0.000977,-0.091309,-0.034912,0.,0.,0.,2.852783,-0.005615,0.056396,0.246094,105,46,146,293
38.559,11:43:14.559,-9.214844,-0.394531,-1.47168,-0.000977,-0.091309,-0.034912,0.,0.,0.,2.852783,-0.005615,0.056396,0.246094,105,46,146,293
38.659,11:43:14.659,-10.790039,-0.474609,-0.768555,0.000977,0.05835,-0.026367,0.,0.,0.,2.852783,-0.005615,0.056396,0.246094,106,46,146,293
38.759,11:43:14.759,-10.790039,-0.474609,-0.768555,0.000977,0.05835,-0.026367,0.,0.,0.,2.852783,-0.005615,0.056396,0.246094,106,46,146,293
38.859,11:43:14.859,-10.105469,-0.003906,-0.108398,-0.016846,-0.041504,-0.084961,0.,0.,0.,2.852783,-0.006104,0.056396,0.25,106,46,147,293
38.959,11:43:14.959,-9.521484,1.178711,-0.688477,-0.032959,0.043457,-0.037109,0.,0.,0.,2.853271,-0.006104,0.056396,0.25,104,46,145,293
39.059,11:43:15.059,-9.521484,1.178711,-0.688477,-0.032959,0.043457,-0.037109,0.,0.,0.,2.853271,-0.006104,0.056396,0.25,104,46,145,293
39.159,11:43:15.159,-10.31543,0.,1.086914,-0.008301,0.055176,-0.016846,0.,0.,0.,2.853271,-0.005859,0.056396,0.246094,106,46,145,293
39.259,11:43:15.259,-10.31543,0.,1.086914,-0.008301,0.055176,-0.016846,0.,0.,0.,2.853271,-0.005859,0.056396,0.246094,106,46,145,293
39.359,11:43:15.359,-8.348633,0.479492,-1.125,-0.025391,-0.027588,-0.043457,0.,0.,0.,2.853271,-0.005615,0.056641,0.246094,107,46,145,293
39.459,11:43:15.459,-9.224609,-0.507812,1.182617,0.000977,0.093506,0.025391,0.,0.,0.,2.853271,-0.005615,0.056641,0.246094,107,46,146,293
39.559,11:43:15.559,-8.850586,-0.360352,0.132812,-0.006348,-0.04248,-0.034912,0.,0.,0.,2.853516,-0.005371,0.056641,0.246094,106,46,145,293
39.659,11:43:15.659,-8.850586,-0.360352,0.132812,-0.006348,-0.04248,-0.034912,0.,0.,0.,2.853516,-0.005371,0.056641,0.246094,106,46,145,293
39.759,11:43:15.759,-10.402344,-0.089844,0.72168,-0.008301,-0.024414,-0.101074,0.,0.,0.,2.85376,-0.005615,0.056885,0.246094,104,46,145,293
39.859,11:43:15.859,-9.836914,0.375,0.451172,-0.02124,0.033936,-0.036133,0.,0.,0.,2.85376,-0.005127,0.056885,0.25,104,46,145,293
39.959,11:43:15.959,-9.836914,0.375,0.451172,-0.02124,0.033936,-0.036133,0.,0.,0.,2.85376,-0.005127,0.056885,0.25,104,46,145,293
40.059,11:43:16.059,-10.018555,0.532227,-0.564453,-0.024414,-0.072266,-0.018066,0.,0.,0.,2.853516,-0.005859,0.056885,0.25,105,46,145,293
40.159,11:43:16.159,-11.172852,-0.146484,-0.764648,-0.009521,-0.026367,0.02002,0.,0.,0.,2.85376,-0.006104,0.056885,0.25,106,46,145,294
40.259,11:43:16.259,-9.927734,0.071289,-1.048828,-0.014893,-0.060547,-0.029785,0.,0.,0.,2.85376,-0.005859,0.056885,0.25,108,46,145,296
40.359,11:43:16.359,-9.62207,-0.40332,-0.987305,-0.02124,0.05835,0.009521,0.,0.,0.,2.854004,-0.005859,0.057373,0.246094,108,46,146,299
40.459,11:43:16.459,-9.607422,-0.375,-0.512695,0.006348,0.052002,-0.052002,0.,0.,0.,2.854004,-0.006104,0.057373,0.246094,108,46,146,297
40.559,11:43:16.559,-9.104492,0.046875,-0.958984,-0.028564,0.095703,-0.077637,0.,0.,0.,2.85376,-0.005615,0.057617,0.246094,106,46,145,295
40.659,11:43:16.659,-9.104492,0.046875,-0.958984,-0.028564,0.095703,-0.077637,0.,0.,0.,2.85376,-0.005615,0.057617,0.246094,106,46,145,295
40.759,11:43:16.759,-9.333984,0.741211,0.365234,-0.026367,0.023193,-0.076416,0.,0.,0.,2.854248,-0.005859,0.057373,0.25,105,46,145,295
40.859,11:43:16.859,-10.742188,0.631836,0.635742,-0.013672,0.095703,-0.073242,0.,0.,0.,2.854492,-0.005615,0.057617,0.246094,108,46,145,294
40.959,11:43:16.959,-9.056641,0.679688,1.158203,-0.018066,0.014893,-0.052002,0.,0.,0.,2.854248,-0.005371,0.057617,0.246094,106,46,145,294
41.059,11:43:17.059,-8.999023,-0.066406,-0.094727,-0.031738,-0.008301,0.005127,0.,0.,0.,2.854492,-0.004883,0.057861,0.25,106,46,145,294
41.159,11:43:17.159,-9.640625,-0.456055,0.754883,0.022217,0.036133,0.016846,0.,0.,0.,2.854492,-0.004883,0.057861,0.25,105,46,145,295
41.259,11:43:17.259,-8.271484,-0.427734,-0.365234,-0.026367,-0.016846,-0.003174,0.,0.,0.,2.854492,-0.005371,0.057861,0.25,105,46,145,295
41.359,11:43:17.359,-9.866211,-0.560547,0.484375,-0.000977,0.065918,0.02002,0.,0.,0.,2.854736,-0.005127,0.057617,0.246094,106,46,145,296
41.459,11:43:17.459,-9.200195,-0.34668,0.768555,0.,-0.030762,-0.016846,0.,0.,0.,2.854736,-0.005615,0.057617,0.246094,108,46,146,296
41.559,11:43:17.559,-9.200195,-0.34668,0.768555,0.,-0.030762,-0.016846,0.,0.,0.,2.854736,-0.005615,0.057617,0.246094,108,46,146,296
41.659,11:43:17.659,-10.50293,0.217773,-0.046875,-0.013672,0.019043,-0.003174,0.,0.,0.,2.85498,-0.005859,0.057617,0.25,108,46,146,296
41.759,11:43:17.759,-10.50293,0.217773,-0.046875,-0.013672,0.019043,-0.003174,0.,0.,0.,2.85498,-0.005859,0.057617,0.25,108,46,146,296
41.859,11:43:17.859,-10.583984,0.499023,1.163086,0.000977,-0.033936,-0.040283,0.,0.,0.,2.85498,-0.006348,0.057373,0.25,108,46,146,295
41.959,11:43:17.959,-10.660156,0.84082,-0.526367,-0.037109,-0.083008,-0.032959,0.,0.,0.,2.854736,-0.005859,0.057617,0.246094,107,46,146,295
42.059,11:43:18.059,-11.283203,0.213867,0.375,0.016846,-0.051025,-0.005127,0.,0.,0.,2.854736,-0.005859,0.057617,0.246094,107,46,145,294
42.159,11:43:18.159,-9.473633,0.318359,-1.642578,-0.024414,-0.122314,-0.019043,0.,0.,0.,2.854736,-0.005859,0.058105,0.25,105,46,145,294
42.259,11:43:18.259,-10.842773,-0.489258,-0.920898,0.010498,0.027588,0.008301,0.,0.,0.,2.85498,-0.005615,0.058105,0.246094,104,46,145,293
42.359,11:43:18.359,-10.842773,-0.489258,-0.920898,0.010498,0.027588,0.008301,0.,0.,0.,2.85498,-0.005615,0.058105,0.246094,104,46,145,293
42.459,11:43:18.459,-10.44043,0.099609,-0.693359,-0.015869,0.125488,-0.069092,0.,0.,0.,2.854736,-0.005859,0.058594,0.25,110,46,145,293
42.559,11:43:18.559,-9.985352,0.270508,0.446289,-0.003174,0.026367,-0.05957,0.,0.,0.,2.854492,-0.006104,0.058105,0.25,109,46,145,293
42.659,11:43:18.659,-9.985352,0.270508,0.446289,-0.003174,0.026367,-0.05957,0.,0.,0.,2.854492,-0.006104,0.058105,0.25,109,46,145,293
42.759,11:43:18.759,-10.689453,0.807617,1.068359,-0.006348,0.061523,-0.043457,0.,0.,0.,2.854492,-0.006104,0.058105,0.25,108,46,145,293
42.859,11:43:18.859,-9.353516,0.774414,-0.588867,-0.037109,-0.026367,-0.036133,0.,0.,0.,2.854736,-0.006104,0.05835,0.25,108,46,145,293
42.959,11:43:18.959,-9.353516,0.774414,-0.588867,-0.037109,-0.026367,-0.036133,0.,0.,0.,2.854736,-0.006104,0.05835,0.25,108,46,145,293
43.059,11:43:19.059,-9.851562,-0.545898,0.459961,-0.012695,0.112793,-0.007324,0.,0.,0.,2.854736,-0.006104,0.05835,0.25,106,46,145,293
43.159,11:43:19.159,-8.654297,0.013672,1.006836,0.,0.009521,-0.062744,0.,0.,0.,2.854492,-0.006104,0.05835,0.25,105,46,145,293
43.259,11:43:19.259,-9.832031,0.084961,0.660156,-0.016846,0.087158,-0.038086,0.,0.,0.,2.854736,-0.005859,0.058594,0.246094,105,46,145,293
43.359,11:43:19.359,-9.832031,0.351562,1.619141,-0.005127,0.056396,-0.070068,0.,0.,0.,2.854492,-0.005615,0.05835,0.246094,105,46,145,293
43.459,11:43:19.459,-10.100586,0.517578,0.541016,-0.034912,-0.005127,-0.048828,0.,0.,0.,2.854492,-0.005371,0.05835,0.25,105,46,145,293
43.559,11:43:19.559,-10.100586,0.517578,0.541016,-0.034912,-0.005127,-0.048828,0.,0.,0.,2.854492,-0.005371,0.05835,0.25,105,46,145,293
43.659,11:43:19.659,-10.100586,0.517578,0.541016,-0.034912,-0.005127,-0.048828,0.,0.,0.,2.854492,-0.005371,0.05835,0.25,105,46,145,293
43.759,11:43:19.759,-10.100586,0.517578,0.541016,-0.034912,-0.005127,-0.048828,0.,0.,0.,2.854492,-0.005371,0.05835,0.25,105,46,145,293
43.859,11:43:19.859,-8.754883,-0.384766,0.018555,0.008301,-0.046631,-0.033936,0.,0.,0.,2.854736,-0.005615,0.058594,0.246094,105,46,145,293
43.959,11:43:19.959,-9.980469,-0.541016,0.080078,-0.011475,0.011475,-0.011475,0.,0.,0.,2.854736,-0.005615,0.058594,0.246094,105,46,145,293
44.059,11:43:20.059,-10.057617,-0.118164,0.640625,-0.007324,-0.040283,-0.039307,0.,0.,0.,2.854736,-0.005615,0.058594,0.246094,108,46,145,293
44.159,11:43:20.159,-10.473633,0.389648,0.137695,-0.025391,-0.018066,-0.027588,0.,0.,0.,2.85498,-0.005859,0.058838,0.246094,109,46,146,293
44.259,11:43:20.259,-11.201172,0.34668,0.792969,-0.00415,-0.041504,-0.012695,0.,0.,0.,2.855225,-0.005859,0.058594,0.25,110,46,147,293
44.359,11:43:20.359,-9.688477,0.394531,-0.056641,-0.027588,-0.087158,0.025391,0.,0.,0.,2.855469,-0.005859,0.058838,0.25,109,46,146,293
44.459,11:43:20.459,-9.688477,0.394531,-0.056641,-0.027588,-0.087158,0.025391,0.,0.,0.,2.855469,-0.005859,0.058838,0.25,109,46,146,293
44.559,11:43:20.559,-10.712891,-0.037109,-0.317383,-0.000977,-0.066895,0.013672,0.,0.,0.,2.855469,-0.005859,0.058838,0.25,109,46,146,293
44.659,11:43:20.659,-8.807617,-0.189453,-0.484375,0.003174,-0.078613,0.026367,0.,0.,0.,2.855225,-0.005859,0.059082,0.25,109,46,145,293
44.759,11:43:20.759,-10.435547,-0.660156,-0.313477,0.005127,-0.000977,0.003174,0.,0.,0.,2.855225,-0.006104,0.059082,0.246094,109,46,145,292
44.859,11:43:20.859,-10.435547,-0.660156,-0.313477,0.005127,-0.000977,0.003174,0.,0.,0.,2.855225,-0.006104,0.059082,0.246094,109,46,145,292
44.959,11:43:20.959,-10.435547,-0.660156,-0.313477,0.005127,-0.000977,0.003174,0.,0.,0.,2.855225,-0.006104,0.059082,0.246094,109,46,145,292
45.059,11:43:21.059,-9.333984,0.613281,2.388672,0.063721,1.630127,-0.129639,0.,0.,0.,2.858643,-0.020752,0.193848,0.246094,106,46,144,293
45.159,11:43:21.159,-12.876953,-0.151367,-0.370117,0.010498,-0.807617,0.811768,0.,0.,0.,2.873291,0.034424,0.046875,0.222656,105,46,144,293
45.259,11:43:21.259,-11.435547,0.532227,0.612305,0.126465,-1.219482,0.641602,0.,0.,0.,2.887451,0.041748,0.025146,0.207031,105,46,144,295
45.359,11:43:21.359,-11.435547,0.532227,0.612305,0.126465,-1.219482,0.641602,0.,0.,0.,2.887451,0.041748,0.025146,0.207031,105,46,144,295
45.459,11:43:21.459,-9.72168,-0.341797,-0.350586,0.243652,0.428711,-0.295654,0.,0.,0.,2.931396,0.047607,0.019531,0.207031,105,47,69,203
45.559,11:43:21.559,-9.96582,0.018555,-0.113281,0.306396,0.011475,-0.067871,0.,0.,0.,2.96167,0.047607,0.03418,0.207031,103,49,69,203
45.659,11:43:21.659,-9.96582,0.018555,-0.113281,0.306396,0.011475,-0.067871,0.,0.,0.,2.96167,0.047607,0.03418,0.207031,103,49,69,203
45.759,11:43:21.759,-8.396484,-0.108398,1.448242,0.360596,-0.139404,-0.123291,0.,0.,0.,3.063965,0.03125,0.034668,0.339844,97,143,140,211
45.859,11:43:21.859,-8.396484,-0.108398,1.448242,0.360596,-0.139404,-0.123291,0.,0.,0.,3.063965,0.03125,0.034668,0.339844,97,143,140,211
45.959,11:43:21.959,-8.123047,-0.650391,0.626953,-0.091309,0.02002,-0.303223,0.,0.,0.,3.099609,-0.193359,0.020752,0.375,93,147,138,249
46.059,11:43:22.059,-8.616211,-0.051758,0.094727,-0.07959,0.025391,1.774902,0.,0.,0.,3.094727,-0.211914,0.021729,0.363281,93,149,136,248
46.159,11:43:22.159,-9.492188,0.850586,-0.40332,-0.025391,0.110596,0.131836,0.,0.,0.,3.091797,-0.140869,0.020752,0.324219,91,126,131,248
46.259,11:43:22.259,-11.412109,-0.802734,0.260742,-0.036133,0.099854,0.13501,0.,0.,0.,3.095215,-0.026123,0.041016,0.210938,91,56,130,244
46.359,11:43:22.359,-11.426758,-0.336914,0.920898,-0.013672,0.095703,2.56665,0.,0.,0.,3.105713,0.133545,0.049316,0.210938,91,125,131,243
46.459,11:43:22.459,-11.426758,-0.336914,0.920898,-0.013672,0.095703,2.56665,0.,0.,0.,3.105713,0.133545,0.049316,0.210938,91,125,131,243
46.559,11:43:22.559,-11.273438,0.270508,-0.246094,0.171143,0.110596,1.369629,0.,0.,0.,3.118652,0.218018,0.046875,0.210938,92,148,134,243
46.659,11:43:22.659,-11.273438,0.270508,-0.246094,0.171143,0.110596,1.369629,0.,0.,0.,3.118652,0.218018,0.046875,0.210938,92,148,134,243
46.759,11:43:22.759,-9.592773,-1.316406,0.925781,0.202148,0.075439,-3.255371,0.,0.,0.,3.131592,0.203613,0.041504,0.210938,94,145,99,276
46.859,11:43:22.859,-10.607422,-0.008789,1.149414,-0.027588,0.014893,-1.318359,0.,0.,0.,3.139648,-0.111816,0.047119,0.210938,94,143,46,299
46.959,11:43:22.959,-9.420898,-0.56543,0.151367,0.170166,0.144531,-1.874023,0.,0.,0.,-3.121094,0.164307,0.063232,0.199219,102,131,107,289
47.059,11:43:23.059,-9.420898,-0.56543,0.151367,0.170166,0.144531,-1.874023,0.,0.,0.,-3.121094,0.164307,0.063232,0.199219,102,131,107,289
47.159,11:43:23.159,-9.162109,-0.15625,0.02832,-0.029785,-0.029785,-0.489502,0.,0.,0.,-3.104004,-0.178955,0.072754,0.199219,106,126,68,252
47.259,11:43:23.259,-9.995117,0.323242,1.942383,-0.111572,0.013672,3.025391,0.,0.,0.,-3.112549,-0.069336,0.075928,0.199219,110,136,139,245
47.359,11:43:23.359,-9.645508,-0.008789,0.018555,0.04248,0.111572,0.834229,0.,0.,0.,-3.110352,0.11084,0.067139,0.199219,110,101,140,237
47.459,11:43:23.459,-9.645508,-0.008789,0.018555,0.04248,0.111572,0.834229,0.,0.,0.,-3.110352,0.11084,0.067139,0.199219,110,101,140,237
47.559,11:43:23.559,-10.737305,0.34668,0.764648,0.106201,-0.078613,-1.099121,0.,0.,0.,-3.102295,0.14917,0.067139,0.199219,111,50,144,240
47.659,11:43:23.659,-10.737305,0.34668,0.764648,0.106201,-0.078613,-1.099121,0.,0.,0.,-3.102295,0.14917,0.067139,0.199219,111,50,144,240
47.759,11:43:23.759,-10.737305,0.34668,0.764648,0.106201,-0.078613,-1.099121,0.,0.,0.,-3.102295,0.14917,0.067139,0.199219,111,50,144,240
47.859,11:43:23.859,-10.574219,-0.46582,0.12793,0.014893,0.103027,1.354736,0.,0.,0.,-3.083252,0.144043,0.068848,0.199219,113,127,102,269
47.959,11:43:23.959,-10.574219,-0.46582,0.12793,0.014893,0.103027,1.354736,0.,0.,0.,-3.083252,0.144043,0.068848,0.199219,113,127,102,269
48.059,11:43:24.059,-10.574219,-0.46582,0.12793,0.014893,0.103027,1.354736,0.,0.,0.,-3.083252,0.144043,0.068848,0.199219,113,127,102,269
48.159,11:43:24.159,-9.746094,0.066406,-0.668945,-0.047852,0.033936,-1.921875,0.,0.,0.,-3.069092,-0.205322,0.064209,0.199219,113,124,70,276
48.259,11:43:24.259,-9.746094,0.066406,-0.668945,-0.047852,0.033936,-1.921875,0.,0.,0.,-3.069092,-0.205322,0.064209,0.199219,113,124,70,276
48.359,11:43:24.359,-10.052734,-0.422852,-0.132812,-0.092529,-0.0979,0.662842,0.,0.,0.,-3.074707,-0.157471,0.060059,0.199219,113,122,163,278
48.459,11:43:24.459,-10.105469,0.265625,-0.260742,-0.063721,0.031738,2.584961,0.,0.,0.,-3.074219,-0.056885,0.062256,0.199219,113,120,157,278
48.559,11:43:24.559,-11.110352,-0.018555,0.973633,0.032959,0.111572,0.474609,0.,0.,0.,-3.070557,0.116455,0.057129,0.199219,113,118,153,278
48.659,11:43:24.659,-9.477539,-0.265625,-0.365234,0.107422,-0.089355,-1.091797,0.,0.,0.,-3.063232,0.153809,0.056396,0.199219,113,118,157,279
48.759,11:43:24.759,-9.822266,-0.15625,-0.844727,0.04248,0.011475,-0.043457,0.,0.,0.,-3.053955,0.106201,0.05835,0.199219,113,114,161,277
48.859,11:43:24.859,-9.645508,0.68457,1.80957,0.065918,0.125488,-0.146729,0.,0.,0.,-3.050049,0.061768,0.057861,0.207031,113,112,111,276
48.959,11:43:24.959,-9.238281,0.137695,-0.683594,0.043457,0.048828,-0.298828,0.,0.,0.,-3.045898,0.046387,0.054443,0.210938,113,113,79,276
49.059,11:43:25.059,-10.306641,-0.545898,-0.170898,0.05835,-0.061523,-2.166504,0.,0.,0.,-3.043701,-0.08374,0.053223,0.214844,113,114,132,277
49.159,11:43:25.159,-10.306641,-0.545898,-0.170898,0.05835,-0.061523,-2.166504,0.,0.,0.,-3.043701,-0.08374,0.053223,0.214844,113,114,132,277
49.259,11:43:25.259,-9.195312,-0.802734,0.265625,-0.044678,-0.038086,-0.781006,0.,0.,0.,-3.044922,-0.167725,0.058838,0.222656,114,114,168,262
49.359,11:43:25.359,-9.195312,-0.802734,0.265625,-0.044678,-0.038086,-0.781006,0.,0.,0.,-3.044922,-0.167725,0.058838,0.222656,114,114,168,262
49.459,11:43:25.459,-9.396484,1.601562,-0.108398,-0.074463,0.108398,2.063477,0.,0.,0.,-3.046875,-0.171143,0.058105,0.21875,114,114,164,241
49.559,11:43:25.559,-9.396484,1.601562,-0.108398,-0.074463,0.108398,2.063477,0.,0.,0.,-3.046875,-0.171143,0.058105,0.21875,114,114,164,241
49.659,11:43:25.659,-10.708008,0.008789,-0.275391,-0.02124,0.048828,0.695801,0.,0.,0.,-3.044922,0.038086,0.055664,0.203125,115,112,162,242
49.759,11:43:25.759,-10.708008,0.008789,-0.275391,-0.02124,0.048828,0.695801,0.,0.,0.,-3.044922,0.038086,0.055664,0.203125,115,112,162,242
49.859,11:43:25.859,-10.450195,-0.912109,-1.030273,0.014893,-0.128662,-0.38501,0.,0.,0.,-3.037598,0.118164,0.059326,0.203125,115,110,162,245
49.959,11:43:25.959,-9.961914,-0.59375,0.118164,0.044678,0.027588,0.20752,0.,0.,0.,-3.030029,0.082031,0.064453,0.203125,116,106,165,256
50.059,11:43:26.059,-10.521484,-0.12793,0.944336,0.011475,0.116943,-0.067871,0.,0.,0.,-3.026123,0.058594,0.061035,0.203125,116,105,177,273
50.159,11:43:26.159,-10.119141,-0.12793,0.12793,0.034912,0.000977,-0.161621,0.,0.,0.,-3.020752,0.054443,0.064941,0.203125,118,105,178,262
50.259,11:43:26.259,-9.870117,-0.161133,0.170898,0.030762,0.124512,-0.208496,0.,0.,0.,-3.015625,0.047363,0.067383,0.203125,118,105,172,247
50.359,11:43:26.359,-9.870117,-0.161133,0.170898,0.030762,0.124512,-0.208496,0.,0.,0.,-3.015625,0.047363,0.067383,0.203125,118,105,172,247
50.459,11:43:26.459,-9.84668,0.033203,0.355469,-0.02124,-0.040283,-0.024414,0.,0.,0.,-3.01001,0.02832,0.068848,0.203125,117,101,170,274
50.559,11:43:26.559,-9.84668,0.033203,0.355469,-0.02124,-0.040283,-0.024414,0.,0.,0.,-3.01001,0.02832,0.068848,0.203125,117,101,170,274
50.659,11:43:26.659,-9.597656,-0.108398,-0.046875,-0.000977,0.047852,-0.134033,0.,0.,0.,-3.007324,0.024902,0.067871,0.203125,117,101,170,262
50.759,11:43:26.759,-9.597656,-0.108398,-0.046875,-0.000977,0.047852,-0.134033,0.,0.,0.,-3.007324,0.024902,0.067871,0.203125,117,101,170,262
50.859,11:43:26.859,-9.176758,0.499023,-0.018555,-0.001953,-0.04248,-0.15625,0.,0.,0.,-3.005127,0.026611,0.065918,0.203125,117,102,170,245
50.959,11:43:26.959,-9.176758,0.499023,-0.018555,-0.001953,-0.04248,-0.15625,0.,0.,0.,-3.005127,0.026611,0.065918,0.203125,117,102,170,245
51.059,11:43:27.059,-9.750977,-0.902344,-0.792969,0.008301,-0.039307,0.010498,0.,0.,0.,-3.003174,0.025635,0.060303,0.203125,118,105,169,246
51.159,11:43:27.159,-10.435547,0.698242,0.963867,0.026367,0.015869,-0.109375,0.,0.,0.,-3.,0.019531,0.059326,0.203125,115,105,168,247
51.259,11:43:27.259,-10.038086,-0.142578,0.075195,-0.006348,0.022217,-0.093506,0.,0.,0.,-2.998047,0.003662,0.060791,0.203125,113,105,167,266
51.359,11:43:27.359,-10.038086,-0.142578,0.075195,-0.006348,0.022217,-0.093506,0.,0.,0.,-2.998047,0.003662,0.060791,0.203125,113,105,167,266
51.459,11:43:27.459,-10.454102,-0.056641,-0.806641,0.008301,0.011475,-0.087158,0.,0.,0.,-2.990967,-0.005371,0.038086,0.203125,109,110,161,290
51.559,11:43:27.559,-10.669922,-0.394531,0.15625,-0.013672,0.022217,-0.065918,0.,0.,0.,-2.989502,-0.009766,0.039551,0.203125,108,110,160,291
51.659,11:43:27.659,-9.665039,-0.179688,0.459961,0.000977,-0.038086,-0.07959,0.,0.,0.,-2.988525,-0.010986,0.03833,0.203125,106,111,157,293
51.759,11:43:27.759,-9.665039,-0.179688,0.459961,0.000977,-0.038086,-0.07959,0.,0.,0.,-2.988525,-0.010986,0.03833,0.203125,106,111,157,293
51.859,11:43:27.859,-9.124023,-0.40332,-0.332031,0.007324,-0.019043,-0.088135,0.,0.,0.,-2.986084,-0.010254,0.036621,0.203125,106,114,155,290
51.959,11:43:27.959,-9.985352,-0.02832,-0.023438,-0.007324,0.047852,-0.086182,0.,0.,0.,-2.984131,-0.012207,0.03833,0.203125,106,115,155,289
52.059,11:43:28.059,-10.325195,-0.061523,1.125,-0.007324,0.09668,0.022217,0.,0.,0.,-2.983154,-0.01416,0.038574,0.203125,107,117,154,263
52.159,11:43:28.159,-9.665039,0.094727,0.849609,0.00415,0.112793,-0.001953,0.,0.,0.,-2.981201,-0.014648,0.041016,0.203125,107,118,153,246
52.259,11:43:28.259,-10.287109,0.360352,0.336914,0.027588,0.010498,0.039307,0.,0.,0.,-2.978271,-0.017334,0.05127,0.203125,108,121,152,244
52.359,11:43:28.359,-9.272461,0.265625,-0.944336,-0.005127,-0.028564,0.,0.,0.,0.,-2.972168,-0.02124,0.056641,0.203125,105,126,150,230
52.459,11:43:28.459,-9.922852,0.089844,-0.208984,0.001953,-0.127686,0.092529,0.,0.,0.,-2.970215,-0.018311,0.053955,0.203125,106,126,150,220
52.559,11:43:28.559,-9.922852,0.089844,-0.208984,0.001953,-0.127686,0.092529,0.,0.,0.,-2.970215,-0.018311,0.053955,0.203125,106,126,150,220
52.659,11:43:28.659,-10.516602,0.089844,0.388672,0.009521,0.069092,-0.067871,0.,0.,0.,-2.96875,-0.008789,0.044678,0.203125,107,127,149,218
52.759,11:43:28.759,-10.554688,-0.579102,0.958984,0.019043,0.196777,0.007324,0.,0.,0.,-2.966797,-0.000977,0.047852,0.203125,108,128,148,218
52.859,11:43:28.859,-11.039062,0.427734,1.244141,0.016846,-0.067871,0.036133,0.,0.,0.,-2.964844,0.001465,0.056152,0.203125,110,131,152,218
52.959,11:43:28.959,-10.009766,0.075195,0.55957,0.013672,0.130859,-0.080811,0.,0.,0.,-2.962158,0.001221,0.064453,0.203125,114,132,159,232
53.059,11:43:29.059,-9.84668,0.750977,1.37207,-0.005127,0.093506,0.037109,0.,0.,0.,-2.955078,0.004639,0.095703,0.214844,116,139,147,244
53.159,11:43:29.159,-10.02832,-0.285156,0.199219,-0.014893,-0.170166,-0.05957,0.,0.,0.,-2.954834,0.002197,0.0979,0.226562,116,139,146,232
53.259,11:43:29.259,-8.850586,0.575195,-0.018555,-0.018066,0.019043,-0.128662,0.,0.,0.,-2.953613,0.005127,0.079346,0.234375,116,139,144,230
53.359,11:43:29.359,-9.574219,0.432617,-0.113281,-0.003174,-0.083008,0.065918,0.,0.,0.,-2.952881,0.005127,0.068115,0.238281,117,140,144,226
53.459,11:43:29.459,-9.836914,0.033203,-0.887695,-0.000977,-0.051025,-0.019043,0.,0.,0.,-2.952637,0.002197,0.063232,0.234375,117,142,142,214
53.559,11:43:29.559,-11.047852,0.865234,0.588867,-0.023193,-0.111572,-0.031738,0.,0.,0.,-2.950684,0.004639,0.063721,0.203125,117,146,142,214
53.659,11:43:29.659,-11.047852,0.865234,0.588867,-0.023193,-0.111572,-0.031738,0.,0.,0.,-2.950684,0.004639,0.063721,0.203125,117,146,142,214
53.759,11:43:29.759,-10.272461,-0.104492,0.683594,-0.040283,-0.027588,-0.011475,0.,0.,0.,-2.951172,0.004395,0.063477,0.199219,118,147,140,224
53.859,11:43:29.859,-9.224609,0.741211,-0.90625,-0.013672,0.157471,-0.036133,0.,0.,0.,-2.951904,0.006348,0.064209,0.199219,118,148,139,223
53.959,11:43:29.959,-9.72168,0.24707,0.132812,-0.023193,0.046631,0.,0.,0.,0.,-2.951904,0.004883,0.074463,0.214844,118,150,143,211
54.059,11:43:30.059,-9.72168,0.24707,0.132812,-0.023193,0.046631,0.,0.,0.,0.,-2.951904,0.004883,0.074463,0.214844,118,150,143,211
54.159,11:43:30.159,-9.995117,0.146484,1.310547,-0.013672,-0.026367,-0.046631,0.,0.,0.,-2.951904,0.002686,0.081787,0.226562,118,145,147,208
54.259,11:43:30.259,-9.995117,0.146484,1.310547,-0.013672,-0.026367,-0.046631,0.,0.,0.,-2.951904,0.002686,0.081787,0.226562,118,145,147,208
54.359,11:43:30.359,-9.353516,0.213867,-1.073242,-0.016846,0.015869,-0.026367,0.,0.,0.,-2.952393,0.001709,0.080322,0.238281,117,142,139,210
54.459,11:43:30.459,-9.84668,0.132812,-0.77832,-0.043457,-0.124512,-0.090332,0.,0.,0.,-2.95166,0.001465,0.072754,0.246094,117,146,135,210
54.559,11:43:30.559,-9.31543,0.204102,-1.595703,-0.038086,-0.018066,-0.101074,0.,0.,0.,-2.952881,0.001953,0.062012,0.246094,117,149,133,210
54.659,11:43:30.659,-9.31543,0.204102,-1.595703,-0.038086,-0.018066,-0.101074,0.,0.,0.,-2.952881,0.001953,0.062012,0.246094,117,149,133,210
54.759,11:43:30.759,-9.832031,-0.974609,-1.172852,-0.024414,0.014893,-0.307373,0.,0.,0.,-2.953369,-0.006104,0.058594,0.242188,117,150,132,213
54.859,11:43:30.859,-10.176758,1.359375,0.574219,-0.000977,-0.006348,-0.000977,0.,0.,0.,-2.954346,-0.032959,0.061279,0.234375,116,157,128,225
54.959,11:43:30.959,-10.176758,1.359375,0.574219,-0.000977,-0.006348,-0.000977,0.,0.,0.,-2.954346,-0.032959,0.061279,0.234375,116,157,128,225
55.059,11:43:31.059,-9.990234,-0.18457,-0.911133,-0.032959,0.124512,-0.036133,0.,0.,0.,-2.955811,-0.036377,0.059814,0.230469,114,160,126,234
55.159,11:43:31.159,-9.535156,-0.213867,-0.94043,-0.052002,-0.006348,0.051025,0.,0.,0.,-2.957275,-0.023193,0.055176,0.226562,112,157,127,234
55.259,11:43:31.259,-9.866211,-0.179688,1.329102,-0.033936,0.019043,-0.213867,0.,0.,0.,-2.956787,-0.016357,0.055176,0.234375,111,156,130,223
55.359,11:43:31.359,-9.449219,-0.674805,-1.177734,-0.051025,0.010498,0.037109,0.,0.,0.,-2.956055,-0.030273,0.040283,0.246094,110,156,126,206
55.459,11:43:31.459,-9.970703,-0.008789,-0.645508,-0.023193,0.02002,0.28833,0.,0.,0.,-2.956787,-0.030029,0.036621,0.261719,109,156,124,202
55.559,11:43:31.559,-9.703125,-0.280273,-0.089844,-0.030762,-0.033936,-0.031738,0.,0.,0.,-2.957764,-0.003418,0.041748,0.269531,109,156,124,198
55.659,11:43:31.659,-9.731445,-0.113281,1.21582,-0.025391,0.167969,0.018066,0.,0.,0.,-2.956787,0.006348,0.043457,0.269531,110,156,124,185
55.759,11:43:31.759,-10.018555,1.150391,1.048828,0.044678,0.067871,0.075439,0.,0.,0.,-2.95752,0.006104,0.044922,0.269531,110,156,126,167
55.859,11:43:31.859,-9.368164,0.151367,-0.892578,-0.041504,0.041504,0.027588,0.,0.,0.,-2.957275,0.007324,0.049316,0.261719,111,156,137,165
55.959,11:43:31.959,-9.368164,0.151367,-0.892578,-0.041504,0.041504,0.027588,0.,0.,0.,-2.957275,0.007324,0.049316,0.261719,111,156,137,165
56.059,11:43:32.059,-10.262695,0.108398,1.182617,0.013672,0.056396,-0.066895,0.,0.,0.,-2.956299,0.005615,0.056885,0.253906,111,156,170,164
56.159,11:43:32.159,-10.133789,-0.370117,-0.469727,-0.030762,0.005127,-0.016846,0.,0.,0.,-2.954834,0.005859,0.063232,0.25,112,156,138,163
56.259,11:43:32.259,-11.03418,0.204102,1.338867,-0.019043,0.094482,-0.265869,0.,0.,0.,-2.95459,0.000488,0.061768,0.25,113,158,127,163
56.359,11:43:32.359,-9.176758,0.522461,-0.541016,-0.010498,-0.029785,-0.02124,0.,0.,0.,-2.955811,-0.023438,0.0625,0.257812,113,159,126,164
56.459,11:43:32.459,-9.40625,0.503906,-1.186523,-0.036133,-0.016846,0.258545,0.,0.,0.,-2.956055,-0.029053,0.064697,0.269531,114,160,125,163
56.559,11:43:32.559,-8.654297,0.270508,-0.046875,-0.023193,0.044678,-0.078613,0.,0.,0.,-2.955811,-0.006104,0.067627,0.28125,115,161,124,163
56.659,11:43:32.659,-9.185547,0.422852,-0.451172,-0.015869,0.135986,-0.438232,0.,0.,0.,-2.955811,-0.004883,0.068848,0.289062,116,161,123,162
56.759,11:43:32.759,-9.607422,-0.332031,-0.574219,-0.034912,-0.037109,-0.031738,0.,0.,0.,-2.955811,-0.023193,0.074951,0.289062,117,161,123,162
56.859,11:43:32.859,-9.607422,-0.332031,-0.574219,-0.034912,-0.037109,-0.031738,0.,0.,0.,-2.955811,-0.023193,0.074951,0.289062,117,161,123,162
56.959,11:43:32.959,-9.889648,0.003906,-0.668945,-0.039307,0.051025,-0.039307,0.,0.,0.,-2.958252,-0.019775,0.082275,0.285156,118,140,123,217
57.059,11:43:33.059,-9.37793,-0.441406,-0.037109,-0.036133,-0.049805,0.088135,0.,0.,0.,-2.957764,-0.002197,0.077637,0.28125,119,109,121,205
57.159,11:43:33.159,-10.90918,0.62207,1.030273,-0.009521,-0.093506,0.05835,0.,0.,0.,-2.957764,0.003906,0.073242,0.277344,120,128,119,197
57.259,11:43:33.259,-10.239258,-0.113281,0.383789,-0.023193,0.166992,0.128662,0.,0.,0.,-2.957275,0.006836,0.073486,0.269531,121,158,121,186
57.359,11:43:33.359,-10.325195,-0.251953,-0.166016,-0.016846,0.038086,-0.063721,0.,0.,0.,-2.958008,0.012207,0.082031,0.269531,121,157,124,180
57.459,11:43:33.459,-9.439453,0.817383,-0.066406,0.014893,-0.064697,-0.147705,0.,0.,0.,-2.95874,0.013184,0.084717,0.269531,122,157,124,178
57.559,11:43:33.559,-9.779297,0.293945,-0.617188,-0.031738,-0.112793,-0.003174,0.,0.,0.,-2.958984,0.006836,0.073486,0.28125,122,157,124,181
57.659,11:43:33.659,-10.483398,0.394531,1.149414,-0.009521,0.014893,0.036133,0.,0.,0.,-2.961182,0.001465,0.067139,0.292969,121,157,124,192
57.759,11:43:33.759,-9.660156,0.199219,0.037109,-0.008301,0.032959,-0.077637,0.,0.,0.,-2.962158,0.005371,0.064453,0.300781,120,156,124,195
57.859,11:43:33.859,-9.061523,-0.507812,-0.678711,-0.019043,0.148926,-0.295654,0.,0.,0.,-2.961914,-0.001221,0.066162,0.308594,119,155,125,195
57.959,11:43:33.959,-9.061523,-0.507812,-0.678711,-0.019043,0.148926,-0.295654,0.,0.,0.,-2.961914,-0.001221,0.066162,0.308594,119,155,125,195
58.059,11:43:34.059,-9.056641,-0.161133,-0.204102,-0.039307,0.052979,-0.046631,0.,0.,0.,-2.96167,-0.010254,0.073486,0.3125,119,154,127,195
58.159,11:43:34.159,-9.176758,-0.033203,0.417969,-0.022217,0.003174,-0.012695,0.,0.,0.,-2.961426,-0.000488,0.063232,0.3125,118,133,128,195
58.259,11:43:34.259,-10.59375,0.237305,0.826172,-0.018066,-0.010498,-0.070068,0.,0.,0.,-2.960693,0.004883,0.056885,0.304688,117,104,128,195
58.359,11:43:34.359,-8.927734,-0.208984,-0.037109,-0.006348,0.039307,-0.037109,0.,0.,0.,-2.958984,0.005371,0.057129,0.296875,117,131,128,197
58.459,11:43:34.459,-10.463867,0.056641,0.493164,-0.00415,0.018066,0.029785,0.,0.,0.,-2.958252,0.002441,0.054199,0.292969,116,150,129,204
58.559,11:43:34.559,-9.927734,-0.099609,-0.464844,0.,-0.026367,-0.088135,0.,0.,0.,-2.95752,0.002686,0.053955,0.289062,115,152,131,210
58.659,11:43:34.659,-9.325195,-1.306641,-1.985352,-0.028564,-0.09668,-0.244629,0.,0.,0.,-2.957031,-0.001465,0.052979,0.289062,114,154,131,220
58.759,11:43:34.759,-9.798828,0.046875,0.327148,-0.024414,0.038086,-0.003174,0.,0.,0.,-2.956299,-0.010742,0.047607,0.296875,113,154,132,213
58.859,11:43:34.859,-9.822266,-0.298828,0.18457,-0.018066,-0.037109,0.247803,0.,0.,0.,-2.956055,-0.010254,0.045166,0.308594,113,154,131,180
58.959,11:43:34.959,-9.822266,-0.298828,0.18457,-0.018066,-0.037109,0.247803,0.,0.,0.,-2.956055,-0.010254,0.045166,0.308594,113,154,131,180
59.059,11:43:35.059,-9.305664,-0.260742,-1.186523,-0.037109,0.076416,-0.080811,0.,0.,0.,-2.956299,0.00415,0.045654,0.3125,112,149,132,171
59.159,11:43:35.159,-9.856445,-0.003906,0.545898,-0.031738,-0.025391,0.011475,0.,0.,0.,-2.956299,0.006348,0.050293,0.3125,112,147,133,185
59.259,11:43:35.259,-10.660156,0.446289,0.977539,-0.000977,0.084961,-0.028564,0.,0.,0.,-2.956055,0.004395,0.057129,0.3125,111,146,132,205
59.359,11:43:35.359,-10.411133,-0.166016,1.191406,-0.019043,0.111572,-0.077637,0.,0.,0.,-2.955811,0.006104,0.061035,0.308594,111,145,132,203
59.459,11:43:35.459,-9.157227,0.560547,-1.5,-0.011475,-0.083008,-0.164795,0.,0.,0.,-2.955322,0.002686,0.061035,0.308594,111,145,132,202
59.559,11:43:35.559,-9.879883,0.793945,1.595703,0.000977,-0.061523,-0.067871,0.,0.,0.,-2.955811,-0.016357,0.056885,0.308594,112,151,132,203
59.659,11:43:35.659,-10.545898,-0.061523,0.493164,-0.02124,0.108398,-0.108398,0.,0.,0.,-2.956055,-0.025146,0.056641,0.3125,113,156,136,206
59.759,11:43:35.759,-10.545898,-0.061523,0.493164,-0.02124,0.108398,-0.108398,0.,0.,0.,-2.956055,-0.025146,0.056641,0.3125,113,156,136,206
59.859,11:43:35.859,-9.822266,0.988281,0.194336,0.013672,0.072266,0.001953,0.,0.,0.,-2.957031,-0.003662,0.075439,0.3125,113,148,132,168
59.959,11:43:35.959,-9.822266,0.988281,0.194336,0.013672,0.072266,0.001953,0.,0.,0.,-2.957031,-0.003662,0.075439,0.3125,113,148,132,168
60.059,11:43:36.059,-9.157227,0.151367,-0.773438,0.018066,-0.039307,-0.030762,0.,0.,0.,-2.953857,0.005859,0.071777,0.316406,113,148,133,168
60.159,11:43:36.159,-9.157227,0.151367,-0.773438,0.018066,-0.039307,-0.030762,0.,0.,0.,-2.953857,0.005859,0.071777,0.316406,113,148,133,168
60.259,11:43:36.259,-9.861328,0.033203,0.446289,0.009521,-0.116943,0.013672,0.,0.,0.,-2.94873,0.004883,0.062988,0.316406,114,148,133,223
60.359,11:43:36.359,-10.214844,0.850586,0.768555,0.038086,0.089355,-0.046631,0.,0.,0.,-2.94458,0.005127,0.062988,0.316406,115,148,133,213
60.459,11:43:36.459,-9.741211,0.693359,1.267578,0.027588,0.078613,0.,0.,0.,0.,-2.940674,0.004395,0.059814,0.316406,115,148,133,198
60.559,11:43:36.559,-10.871094,-0.351562,1.206055,-0.00415,0.077637,-0.047852,0.,0.,0.,-2.938232,0.003662,0.063232,0.320312,115,148,132,198
60.659,11:43:36.659,-10.871094,-0.351562,1.206055,-0.00415,0.077637,-0.047852,0.,0.,0.,-2.938232,0.003662,0.063232,0.320312,115,148,132,198
60.759,11:43:36.759,-9.803711,-0.080078,-0.678711,0.02002,-0.00415,-0.022217,0.,0.,0.,-2.932129,0.002197,0.06665,0.324219,115,148,131,185
60.859,11:43:36.859,-9.429688,0.213867,0.217773,0.011475,-0.02002,-0.070068,0.,0.,0.,-2.929932,0.003906,0.06665,0.328125,115,150,131,167
60.959,11:43:36.959,-9.429688,0.213867,0.217773,0.011475,-0.02002,-0.070068,0.,0.,0.,-2.929932,0.003906,0.06665,0.328125,115,150,131,167
61.059,11:43:37.059,-9.640625,-0.327148,0.104492,-0.040283,-0.061523,-0.029785,0.,0.,0.,-2.927246,0.00415,0.061768,0.332031,116,155,133,169
61.159,11:43:37.159,-9.530273,0.280273,0.849609,-0.02124,-0.034912,0.015869,0.,0.,0.,-2.927979,0.002686,0.062988,0.328125,116,152,138,199
61.259,11:43:37.259,-9.836914,-0.494141,-1.149414,-0.027588,0.103027,-0.332031,0.,0.,0.,-2.928711,-0.01416,0.064453,0.328125,117,152,151,219
61.359,11:43:37.359,-10.339844,0.588867,-1.082031,-0.037109,-0.099854,-0.210693,0.,0.,0.,-2.929688,-0.026367,0.062012,0.328125,118,155,150,190
61.459,11:43:37.459,-9.544922,0.213867,1.74707,0.001953,0.278809,-0.327637,0.,0.,0.,-2.931152,-0.047852,0.081055,0.332031,116,155,135,172
61.559,11:43:37.559,-10.541016,-0.075195,0.930664,-0.039307,0.176514,-0.066895,0.,0.,0.,-2.932617,-0.057617,0.089844,0.335938,116,154,130,169
61.659,11:43:37.659,-8.865234,0.213867,-0.099609,-0.069092,-0.149902,0.442627,0.,0.,0.,-2.936035,-0.053955,0.0896,0.335938,116,153,130,167
61.759,11:43:37.759,-10.354492,-0.179688,1.078125,-0.060547,-0.11792,0.09668,0.,0.,0.,-2.938721,-0.011963,0.05957,0.335938,117,152,130,199
61.859,11:43:37.859,-9.9375,0.34668,-0.707031,-0.027588,-0.025391,0.05957,0.,0.,0.,-2.94043,0.004639,0.053467,0.335938,117,151,131,221
61.959,11:43:37.959,-9.9375,0.34668,-0.707031,-0.027588,-0.025391,0.05957,0.,0.,0.,-2.94043,0.004639,0.053467,0.335938,117,151,131,221
62.059,11:43:38.059,-9.741211,0.285156,-0.189453,-0.033936,0.127686,-0.089355,0.,0.,0.,-2.943359,0.006592,0.059082,0.335938,116,149,133,282
62.159,11:43:38.159,-10.219727,0.631836,0.844727,-0.015869,-0.032959,-0.00415,0.,0.,0.,-2.944336,0.006836,0.059814,0.339844,116,147,133,246
62.259,11:43:38.259,-8.941406,0.023438,-1.708984,-0.033936,-0.067871,-0.02002,0.,0.,0.,-2.945312,0.006592,0.057861,0.347656,116,146,134,222
62.359,11:43:38.359,-10.368164,0.68457,1.889648,-0.000977,0.026367,-0.024414,0.,0.,0.,-2.946777,0.00415,0.059082,0.351562,116,146,134,211
62.459,11:43:38.459,-8.865234,0.955078,-0.227539,-0.019043,0.086182,-0.120117,0.,0.,0.,-2.94751,0.006348,0.057373,0.359375,115,144,135,208
62.559,11:43:38.559,-9.28125,-0.926758,-1.15332,-0.038086,-0.091309,0.018066,0.,0.,0.,-2.948486,0.007812,0.060791,0.363281,115,143,138,220
62.659,11:43:38.659,-10.541016,0.289062,0.873047,-0.019043,0.116943,0.033936,0.,0.,0.,-2.948975,0.005859,0.063477,0.367188,115,142,143,225
62.759,11:43:38.759,-9.660156,-0.084961,-1.125,-0.032959,-0.022217,-0.029785,0.,0.,0.,-2.949219,0.004639,0.057861,0.371094,116,142,140,228
62.859,11:43:38.859,-10.373047,0.303711,0.754883,-0.012695,-0.026367,-0.036133,0.,0.,0.,-2.948975,0.00708,0.05957,0.371094,116,142,137,230
62.959,11:43:38.959,-10.373047,0.303711,0.754883,-0.012695,-0.026367,-0.036133,0.,0.,0.,-2.948975,0.00708,0.05957,0.371094,116,142,137,230
63.059,11:43:39.059,-9.31543,-0.384766,-0.512695,-0.02124,-0.033936,-0.025391,0.,0.,0.,-2.950195,0.00293,0.064697,0.375,116,140,139,215
63.159,11:43:39.159,-9.31543,-0.384766,-0.512695,-0.02124,-0.033936,-0.025391,0.,0.,0.,-2.950195,0.00293,0.064697,0.375,116,140,139,215
63.259,11:43:39.259,-10.105469,0.793945,0.383789,0.008301,0.022217,-0.149902,0.,0.,0.,-2.950439,0.,0.063477,0.375,115,140,139,213
63.359,11:43:39.359,-8.927734,-0.061523,0.166016,-0.023193,0.02124,-0.092529,0.,0.,0.,-2.949707,-0.008545,0.066406,0.378906,114,141,139,225
63.459,11:43:39.459,-9.578125,-0.550781,-1.068359,-0.054199,-0.102051,0.135986,0.,0.,0.,-2.948975,-0.001709,0.062256,0.382812,114,139,140,228
63.559,11:43:39.559,-10.856445,-0.56543,1.329102,-0.025391,0.094482,0.05835,0.,0.,0.,-2.950439,0.003174,0.057129,0.382812,113,139,140,228
63.659,11:43:39.659,-9.698242,-0.285156,-1.078125,-0.033936,-0.029785,-0.054199,0.,0.,0.,-2.949707,0.002197,0.054932,0.382812,113,139,140,228
63.759,11:43:39.759,-10.450195,0.945312,1.058594,0.00415,-0.007324,-0.028564,0.,0.,0.,-2.949219,0.004639,0.053955,0.382812,113,140,140,228
63.859,11:43:39.859,-9.094727,0.242188,0.15625,-0.022217,-0.073242,-0.016846,0.,0.,0.,-2.948242,0.002441,0.055908,0.382812,113,140,140,228
63.959,11:43:39.959,-9.094727,0.242188,0.15625,-0.022217,-0.073242,-0.016846,0.,0.,0.,-2.948242,0.002441,0.055908,0.382812,113,140,140,228
64.059,11:43:40.059,-9.320312,0.089844,-0.911133,-0.040283,0.00415,-0.123291,0.,0.,0.,-2.950195,0.000977,0.053467,0.386719,113,143,140,230
64.159,11:43:40.159,-9.870117,0.62207,0.797852,-0.011475,-0.039307,-0.080811,0.,0.,0.,-2.949951,-0.006836,0.058594,0.386719,112,145,143,230
64.259,11:43:40.259,-9.363281,0.02832,0.574219,0.006348,0.056396,0.111572,0.,0.,0.,-2.949707,-0.003662,0.056641,0.390625,112,142,145,253
64.359,11:43:40.359,-9.363281,0.260742,-1.300781,-0.034912,-0.047852,0.015869,0.,0.,0.,-2.949219,0.003662,0.054688,0.394531,111,141,141,287
64.459,11:43:40.459,-10.239258,0.860352,0.783203,0.006348,0.04248,-0.112793,0.,0.,0.,-2.949463,0.005615,0.053955,0.394531,111,141,139,284
64.559,11:43:40.559,-8.855469,0.764648,-0.379883,0.011475,0.008301,-0.011475,0.,0.,0.,-2.949951,0.006592,0.054688,0.394531,110,141,140,280
64.659,11:43:40.659,-9.597656,0.12793,0.650391,-0.000977,0.04248,-0.016846,0.,0.,0.,-2.949707,0.004395,0.053467,0.394531,110,141,141,284
64.759,11:43:40.759,-9.597656,0.12793,0.650391,-0.000977,0.04248,-0.016846,0.,0.,0.,-2.949707,0.004395,0.053467,0.394531,110,141,141,284
64.859,11:43:40.859,-9.597656,0.12793,0.650391,-0.000977,0.04248,-0.016846,0.,0.,0.,-2.949707,0.004395,0.053467,0.394531,110,141,141,284
64.959,11:43:40.959,-10.521484,0.113281,1.395508,-0.003174,0.075439,0.015869,0.,0.,0.,-2.94751,-0.015381,0.059326,0.417969,111,144,137,260
65.059,11:43:41.059,-10.521484,0.113281,1.395508,-0.003174,0.075439,0.015869,0.,0.,0.,-2.94751,-0.015381,0.059326,0.417969,111,144,137,260
65.159,11:43:41.159,-9.746094,-0.161133,-0.474609,-0.036133,0.029785,0.007324,0.,0.,0.,-2.948486,-0.020752,0.059326,0.425781,110,145,135,231
65.259,11:43:41.259,-9.698242,-0.12793,-1.358398,-0.025391,-0.075439,-0.04248,0.,0.,0.,-2.949463,-0.019287,0.062744,0.429688,110,145,135,228
65.359,11:43:41.359,-9.487305,-0.071289,-1.239258,-0.011475,0.003174,-0.05957,0.,0.,0.,-2.94873,-0.019775,0.063477,0.425781,110,146,135,225
65.459,11:43:41.459,-9.927734,0.507812,0.617188,0.006348,0.076416,-0.083008,0.,0.,0.,-2.949707,-0.018555,0.062256,0.417969,111,149,134,225
65.559,11:43:41.559,-9.554688,-0.094727,-0.678711,-0.033936,-0.02124,-0.02002,0.,0.,0.,-2.950195,-0.02124,0.065674,0.414062,111,149,134,225
65.659,11:43:41.659,-9.506836,0.084961,-0.902344,-0.052979,0.005127,-0.071289,0.,0.,0.,-2.951172,-0.021484,0.068604,0.414062,111,149,132,197
65.759,11:43:41.759,-9.506836,0.084961,-0.902344,-0.052979,0.005127,-0.071289,0.,0.,0.,-2.951172,-0.021484,0.068604,0.414062,111,149,132,197
65.859,11:43:41.859,-10.219727,0.436523,0.630859,-0.023193,0.02124,-0.05835,0.,0.,0.,-2.952637,-0.020752,0.067383,0.414062,113,150,132,200
65.959,11:43:41.959,-9.669922,0.451172,-1.353516,-0.037109,-0.078613,-0.015869,0.,0.,0.,-2.954102,-0.020752,0.066162,0.417969,113,151,132,202
66.059,11:43:42.059,-9.942383,0.232422,1.224609,0.009521,0.067871,-0.007324,0.,0.,0.,-2.955566,-0.016602,0.063477,0.421875,113,151,132,200
66.159,11:43:42.159,-10.138672,0.365234,0.541016,0.007324,0.029785,-0.02002,0.,0.,0.,-2.955322,-0.017578,0.068848,0.425781,113,151,132,200
66.259,11:43:42.259,-9.736328,-0.080078,-0.383789,-0.024414,0.001953,-0.044678,0.,0.,0.,-2.95459,-0.015869,0.070557,0.429688,113,149,132,199
66.359,11:43:42.359,-10.536133,-0.071289,0.882812,-0.036133,0.047852,-0.052002,0.,0.,0.,-2.954102,-0.015381,0.065674,0.425781,114,149,132,199
66.459,11:43:42.459,-10.813477,0.066406,0.697266,-0.037109,-0.075439,0.013672,0.,0.,0.,-2.954102,-0.011475,0.063721,0.421875,115,149,132,198
66.559,11:43:42.559,-10.105469,-0.037109,-0.080078,-0.052002,-0.000977,0.019043,0.,0.,0.,-2.955078,-0.011475,0.066406,0.421875,115,148,132,198
66.659,11:43:42.659,-10.148438,-0.793945,-0.569336,-0.033936,0.178711,0.135986,0.,0.,0.,-2.953857,0.000732,0.065918,0.421875,115,147,131,199
66.759,11:43:42.759,-10.138672,-0.15625,1.557617,-0.006348,-0.073242,-0.011475,0.,0.,0.,-2.952148,0.007568,0.069336,0.421875,116,147,131,200
66.859,11:43:42.859,-10.191406,1.054688,-0.18457,0.011475,0.013672,-0.029785,0.,0.,0.,-2.950928,0.010498,0.07373,0.417969,117,147,133,200
66.959,11:43:42.959,-9.157227,-0.332031,-1.191406,-0.039307,0.054199,-0.083008,0.,0.,0.,-2.950928,0.007812,0.076172,0.421875,118,145,137,200
67.059,11:43:43.059,-9.678711,1.178711,1.295898,0.00415,0.125488,-0.006348,0.,0.,0.,-2.950439,0.009033,0.075684,0.425781,119,144,137,199
67.159,11:43:43.159,-10.31543,0.008789,-0.094727,-0.028564,-0.031738,-0.048828,0.,0.,0.,-2.949707,0.004883,0.084229,0.433594,122,144,138,199
67.259,11:43:43.259,-9.665039,-0.084961,0.735352,0.00415,0.166992,-0.112793,0.,0.,0.,-2.948242,0.005371,0.087646,0.441406,125,145,139,199
67.359,11:43:43.359,-8.836914,0.570312,-0.707031,-0.008301,0.084961,0.008301,0.,0.,0.,-2.947266,0.005127,0.092529,0.445312,122,143,141,199
67.459,11:43:43.459,-10.191406,-0.413086,-0.783203,-0.019043,-0.114746,-0.010498,0.,0.,0.,-2.946045,0.00293,0.091553,0.445312,120,141,141,199
67.559,11:43:43.559,-9.72168,-0.12793,0.151367,0.011475,0.008301,-0.031738,0.,0.,0.,-2.944336,0.003906,0.085205,0.445312,120,140,142,201
67.659,11:43:43.659,-10.995117,0.427734,1.073242,0.038086,-0.02124,0.025391,0.,0.,0.,-2.942383,0.005127,0.078857,0.445312,119,139,142,204
67.759,11:43:43.759,-10.166992,-0.265625,0.740234,-0.015869,-0.148926,-0.066895,0.,0.,0.,-2.9375,0.008057,0.053955,0.449219,114,135,143,206
67.859,11:43:43.859,-10.808594,-0.175781,0.859375,-0.022217,-0.061523,0.066895,0.,0.,0.,-2.937012,0.00708,0.053955,0.449219,113,135,143,208
67.959,11:43:43.959,-9.391602,0.260742,-0.275391,-0.057373,0.065918,0.041504,0.,0.,0.,-2.937012,0.004639,0.046143,0.453125,111,134,144,209
68.059,11:43:44.059,-9.688477,-0.34668,0.008789,-0.027588,0.,-0.249023,0.,0.,0.,-2.939209,-0.001221,0.040283,0.460938,110,134,143,209
68.159,11:43:44.159,-10.239258,-0.108398,-0.118164,-0.007324,-0.031738,-0.148926,0.,0.,0.,-2.941162,-0.012207,0.03833,0.464844,108,134,143,211
68.259,11:43:44.259,-10.239258,-0.108398,-0.118164,-0.007324,-0.031738,-0.148926,0.,0.,0.,-2.941162,-0.012207,0.03833,0.464844,108,134,143,211
68.359,11:43:44.359,-9.746094,-0.051758,0.455078,-0.034912,0.112793,0.057373,0.,0.,0.,-2.943115,-0.002441,0.040039,0.480469,105,134,147,219
68.459,11:43:44.459,-9.746094,-0.051758,0.455078,-0.034912,0.112793,0.057373,0.,0.,0.,-2.943115,-0.002441,0.040039,0.480469,105,134,147,219
68.559,11:43:44.559,-9.980469,0.84082,0.821289,0.003174,-0.001953,-0.033936,0.,0.,0.,-2.943359,0.001465,0.036377,0.476562,105,134,145,231
68.659,11:43:44.659,-9.980469,0.84082,0.821289,0.003174,-0.001953,-0.033936,0.,0.,0.,-2.943359,0.001465,0.036377,0.476562,105,134,145,231
68.759,11:43:44.759,-9.041992,-0.698242,-1.210938,-0.039307,-0.063721,-0.028564,0.,0.,0.,-2.945068,0.,0.040039,0.46875,105,134,144,245
68.859,11:43:44.859,-10.114258,0.608398,0.388672,-0.001953,0.067871,0.052979,0.,0.,0.,-2.947021,-0.003418,0.049561,0.460938,104,136,142,226
68.959,11:43:44.959,-9.96582,-0.389648,0.365234,-0.033936,0.014893,-0.05835,0.,0.,0.,-2.947266,-0.003418,0.050293,0.457031,104,137,142,211
69.059,11:43:45.059,-9.96582,-0.389648,0.365234,-0.033936,0.014893,-0.05835,0.,0.,0.,-2.947266,-0.003418,0.050293,0.457031,104,137,142,211
69.159,11:43:45.159,-10.166992,0.051758,-0.592773,-0.040283,0.010498,-0.075439,0.,0.,0.,-2.948242,-0.00293,0.051758,0.453125,105,139,140,210
69.259,11:43:45.259,-10.166992,0.051758,-0.592773,-0.040283,0.010498,-0.075439,0.,0.,0.,-2.948242,-0.00293,0.051758,0.453125,105,139,140,210
69.359,11:43:45.359,-10.277344,0.456055,1.068359,-0.012695,0.081787,-0.056396,0.,0.,0.,-2.949951,-0.000488,0.054688,0.453125,106,137,140,208
69.459,11:43:45.459,-9.49707,-1.458984,-2.317383,-0.05957,0.038086,-0.121094,0.,0.,0.,-2.950439,-0.007568,0.055908,0.457031,106,136,139,207
69.559,11:43:45.559,-9.49707,-1.458984,-2.317383,-0.05957,0.038086,-0.121094,0.,0.,0.,-2.950439,-0.007568,0.055908,0.457031,106,136,139,207
69.659,11:43:45.659,-10.828125,0.251953,1.078125,-0.011475,0.137207,-0.012695,0.,0.,0.,-2.954346,-0.021484,0.070557,0.472656,109,143,136,202
69.759,11:43:45.759,-10.828125,0.251953,1.078125,-0.011475,0.137207,-0.012695,0.,0.,0.,-2.954346,-0.021484,0.070557,0.472656,109,143,136,202
69.859,11:43:45.859,-10.828125,0.251953,1.078125,-0.011475,0.137207,-0.012695,0.,0.,0.,-2.954346,-0.021484,0.070557,0.472656,109,143,136,202
69.959,11:43:45.959,-10.828125,0.251953,1.078125,-0.011475,0.137207,-0.012695,0.,0.,0.,-2.954346,-0.021484,0.070557,0.472656,109,143,136,202
70.059,11:43:46.059,-10.033203,0.003906,-0.113281,-0.029785,-0.04248,-0.036133,0.,0.,0.,-2.953857,-0.02002,0.079346,0.46875,111,145,134,200
70.159,11:43:46.159,-9.703125,0.303711,-0.336914,-0.030762,0.073242,0.045654,0.,0.,0.,-2.954102,-0.016846,0.083252,0.464844,113,145,134,199
70.259,11:43:46.259,-10.450195,0.146484,1.756836,-0.04248,0.046631,0.17334,0.,0.,0.,-2.95459,-0.014648,0.082031,0.460938,114,145,134,198
70.359,11:43:46.359,-10.450195,0.146484,1.756836,-0.04248,0.046631,0.17334,0.,0.,0.,-2.95459,-0.014648,0.082031,0.460938,114,145,134,198
70.459,11:43:46.459,-10.646484,0.037109,0.697266,-0.029785,-0.013672,-0.045654,0.,0.,0.,-2.957275,0.003662,0.087646,0.453125,118,145,135,196
70.559,11:43:46.559,-10.646484,0.037109,0.697266,-0.029785,-0.013672,-0.045654,0.,0.,0.,-2.957275,0.003662,0.087646,0.453125,118,145,135,196
70.659,11:43:46.659,-10.646484,0.037109,0.697266,-0.029785,-0.013672,-0.045654,0.,0.,0.,-2.957275,0.003662,0.087646,0.453125,118,145,135,196
70.759,11:43:46.759,-9.655273,-0.061523,-1.191406,-0.034912,-0.195801,0.02124,0.,0.,0.,-2.960938,0.00293,0.078369,0.464844,120,144,137,195
70.859,11:43:46.859,-9.655273,-0.061523,-1.191406,-0.034912,-0.195801,0.02124,0.,0.,0.,-2.960938,0.00293,0.078369,0.464844,120,144,137,195
70.959,11:43:46.959,-9.071289,0.802734,-1.239258,-0.015869,0.044678,-0.169189,0.,0.,0.,-2.964844,-0.005859,0.074951,0.480469,120,143,137,194
71.059,11:43:47.059,-10.052734,-0.275391,-0.146484,-0.05835,0.041504,-0.166992,0.,0.,0.,-2.968506,-0.014648,0.07959,0.484375,121,143,137,215
71.159,11:43:47.159,-9.975586,0.655273,1.47168,-0.039307,-0.112793,0.07959,0.,0.,0.,-2.971191,-0.013428,0.078125,0.492188,120,144,135,230
71.259,11:43:47.259,-9.338867,0.008789,-0.735352,-0.013672,0.015869,0.003174,0.,0.,0.,-2.973877,-0.004395,0.065674,0.496094,120,144,135,222
71.359,11:43:47.359,-8.927734,0.660156,0.132812,-0.040283,-0.044678,0.031738,0.,0.,0.,-2.976074,0.,0.057129,0.488281,119,144,135,217
71.459,11:43:47.459,-10.033203,-0.336914,0.821289,-0.02002,-0.031738,-0.05835,0.,0.,0.,-2.977783,-0.002197,0.055908,0.488281,119,144,135,204
71.559,11:43:47.559,-10.368164,-0.008789,0.62207,-0.032959,0.080811,-0.27124,0.,0.,0.,-2.978271,-0.008301,0.053223,0.488281,119,144,135,196
71.659,11:43:47.659,-10.368164,-0.008789,0.62207,-0.032959,0.080811,-0.27124,0.,0.,0.,-2.978271,-0.008301,0.053223,0.488281,119,144,135,196
71.759,11:43:47.759,-9.952148,-0.170898,-0.545898,-0.061523,-0.055176,-0.131836,0.,0.,0.,-2.979004,-0.015869,0.049805,0.488281,119,144,134,195
71.859,11:43:47.859,-9.822266,-0.166016,0.080078,-0.071289,-0.022217,0.252197,0.,0.,0.,-2.980225,-0.012695,0.051758,0.488281,119,120,134,195
71.959,11:43:47.959,-9.822266,-0.166016,0.080078,-0.071289,-0.022217,0.252197,0.,0.,0.,-2.980225,-0.012695,0.051758,0.488281,119,120,134,195
72.059,11:43:48.059,-8.941406,0.499023,-0.731445,-0.019043,0.167969,0.918213,0.,0.,0.,-2.981689,0.056641,0.060791,0.476562,119,108,135,197
72.159,11:43:48.159,-8.941406,0.499023,-0.731445,-0.019043,0.167969,0.918213,0.,0.,0.,-2.981689,0.056641,0.060791,0.476562,119,108,135,197
72.259,11:43:48.259,-9.975586,0.289062,-0.536133,-0.024414,0.072266,0.09668,0.,0.,0.,-2.984375,-0.060547,0.062012,0.480469,118,144,140,192
72.359,11:43:48.359,-9.975586,0.289062,-0.536133,-0.024414,0.072266,0.09668,0.,0.,0.,-2.984375,-0.060547,0.062012,0.480469,118,144,140,192
72.459,11:43:48.459,-9.975586,0.289062,-0.536133,-0.024414,0.072266,0.09668,0.,0.,0.,-2.984375,-0.060547,0.062012,0.480469,118,144,140,192
72.559,11:43:48.559,-9.411133,0.323242,1.191406,-0.032959,0.083984,0.005127,0.,0.,0.,-2.995605,-0.041504,0.068359,0.519531,118,149,128,192
72.659,11:43:48.659,-9.411133,0.323242,1.191406,-0.032959,0.083984,0.005127,0.,0.,0.,-2.995605,-0.041504,0.068359,0.519531,118,149,128,192
72.759,11:43:48.759,-10.02832,-0.34668,0.242188,-0.046631,0.009521,0.107422,0.,0.,0.,-3.000488,-0.010254,0.063232,0.515625,117,152,124,207
72.859,11:43:48.859,-10.018555,-1.644531,-1.875977,-0.055176,-0.032959,-0.112793,0.,0.,0.,-3.004639,-0.001221,0.05127,0.496094,118,157,119,186
72.959,11:43:48.959,-9.779297,0.041992,-0.208984,-0.016846,0.005127,-0.046631,0.,0.,0.,-3.005859,-0.019043,0.058838,0.496094,119,163,117,184
73.059,11:43:49.059,-9.506836,-0.712891,-0.336914,-0.047852,0.107422,-0.137207,0.,0.,0.,-3.006592,-0.02417,0.059326,0.496094,120,156,117,188
73.159,11:43:49.159,-10.186523,-0.360352,-0.393555,-0.033936,0.061523,-0.069092,0.,0.,0.,-3.00708,-0.030029,0.064209,0.5,121,152,115,201
73.259,11:43:49.259,-8.999023,-0.161133,-1.125,-0.04248,0.014893,-0.104248,0.,0.,0.,-3.007568,-0.032471,0.070801,0.503906,122,159,115,201
73.359,11:43:49.359,-9.818359,-0.099609,0.512695,-0.04248,0.026367,-0.036133,0.,0.,0.,-3.009033,-0.041504,0.081299,0.507812,123,165,113,189
73.459,11:43:49.459,-9.818359,-0.099609,0.512695,-0.04248,0.026367,-0.036133,0.,0.,0.,-3.009033,-0.041504,0.081299,0.507812,123,165,113,189
73.559,11:43:49.559,-10.133789,0.351562,0.250977,-0.038086,0.124512,-0.039307,0.,0.,0.,-3.012207,-0.041016,0.080078,0.503906,123,164,113,188
73.659,11:43:49.659,-10.133789,0.351562,0.250977,-0.038086,0.124512,-0.039307,0.,0.,0.,-3.012207,-0.041016,0.080078,0.503906,123,164,113,188
73.759,11:43:49.759,-9.114258,0.217773,0.322266,-0.062744,-0.001953,-0.046631,0.,0.,0.,-3.015625,-0.043213,0.079834,0.503906,124,164,113,197
73.859,11:43:49.859,-10.119141,0.912109,2.161133,-0.024414,-0.135986,0.355225,0.,0.,0.,-3.017578,-0.026123,0.073486,0.507812,125,163,113,201
73.959,11:43:49.959,-9.248047,0.255859,-1.058594,-0.022217,0.001953,0.062744,0.,0.,0.,-3.020752,-0.012451,0.06543,0.503906,126,163,114,201
74.059,11:43:50.059,-10.952148,-0.166016,0.550781,-0.043457,0.084961,-0.016846,0.,0.,0.,-3.022949,-0.004883,0.063721,0.496094,128,163,115,191
74.159,11:43:50.159,-9.755859,-0.318359,-1.196289,-0.036133,-0.069092,-0.018066,0.,0.,0.,-3.023438,-0.001709,0.060303,0.496094,128,163,115,178
74.259,11:43:50.259,-9.358398,-0.12793,-0.260742,-0.010498,-0.054199,0.010498,0.,0.,0.,-3.023682,-0.000244,0.062256,0.496094,129,161,116,177
74.359,11:43:50.359,-10.942383,0.398438,0.383789,-0.013672,0.072266,-0.015869,0.,0.,0.,-3.024902,0.00708,0.063965,0.496094,129,160,116,176
74.459,11:43:50.459,-10.942383,0.398438,0.383789,-0.013672,0.072266,-0.015869,0.,0.,0.,-3.024902,0.00708,0.063965,0.496094,129,160,116,176
74.559,11:43:50.559,-9.444336,0.089844,-0.707031,-0.027588,0.297852,-0.016846,0.,0.,0.,-3.026611,0.013428,0.066406,0.496094,131,159,117,175
74.659,11:43:50.659,-9.444336,0.089844,-0.707031,-0.027588,0.297852,-0.016846,0.,0.,0.,-3.026611,0.013428,0.066406,0.496094,131,159,117,175
74.759,11:43:50.759,-10.454102,-0.598633,0.869141,-0.084961,0.025391,0.061523,0.,0.,0.,-3.029297,0.009766,0.087158,0.496094,132,159,118,175
74.859,11:43:50.859,-9.856445,1.326172,1.010742,-0.029785,-0.010498,0.005127,0.,0.,0.,-3.032959,0.006836,0.091797,0.5,134,152,119,183
74.959,11:43:50.959,-9.746094,-0.441406,0.013672,-0.064697,0.070068,-0.033936,0.,0.,0.,-3.0354,0.009766,0.084961,0.503906,134,149,120,197
75.059,11:43:51.059,-10.02832,0.588867,0.413086,-0.028564,-0.125488,0.005127,0.,0.,0.,-3.037598,0.010742,0.07959,0.507812,136,155,121,188
75.159,11:43:51.159,-9.822266,0.056641,-0.869141,-0.041504,-0.043457,-0.008301,0.,0.,0.,-3.040527,0.01123,0.078369,0.511719,135,157,121,176
75.259,11:43:51.259,-10.0625,0.298828,-0.232422,-0.047852,0.162598,-0.078613,0.,0.,0.,-3.042969,0.01416,0.080322,0.511719,135,157,122,184
75.359,11:43:51.359,-9.866211,-0.360352,0.250977,-0.063721,0.026367,-0.026367,0.,0.,0.,-3.046387,0.011719,0.080322,0.515625,134,156,122,198
75.459,11:43:51.459,-9.454102,-0.232422,0.212891,-0.064697,0.04248,-0.130859,0.,0.,0.,-3.051025,0.004639,0.085449,0.519531,134,156,122,198
75.559,11:43:51.559,-9.803711,0.417969,0.958984,-0.041504,0.011475,-0.084961,0.,0.,0.,-3.054688,-0.008545,0.087158,0.527344,133,156,122,198
75.659,11:43:51.659,-9.803711,0.417969,0.958984,-0.041504,0.011475,-0.084961,0.,0.,0.,-3.054688,-0.008545,0.087158,0.527344,133,156,122,198
75.759,11:43:51.759,-8.9375,0.293945,-0.844727,-0.057373,-0.043457,-0.07959,0.,0.,0.,-3.061523,-0.022461,0.084473,0.542969,131,156,119,179
75.859,11:43:51.859,-8.9375,0.293945,-0.844727,-0.057373,-0.043457,-0.07959,0.,0.,0.,-3.061523,-0.022461,0.084473,0.542969,131,156,119,179
75.959,11:43:51.959,-9.904297,-0.945312,-0.275391,-0.066895,-0.040283,-0.072266,0.,0.,0.,-3.062744,-0.027588,0.07959,0.535156,129,156,119,179
76.059,11:43:52.059,-10.607422,-0.18457,0.597656,-0.046631,-0.108398,0.21582,0.,0.,0.,-3.065186,-0.018311,0.078613,0.535156,129,156,119,180
76.159,11:43:52.159,-10.262695,0.674805,1.068359,0.029785,0.011475,-0.027588,0.,0.,0.,-3.068115,-0.004883,0.070312,0.511719,127,157,119,182
76.259,11:43:52.259,-9.917969,-0.764648,-1.424805,-0.052979,-0.033936,-0.034912,0.,0.,0.,-3.067627,-0.002441,0.073486,0.511719,124,157,119,183
76.359,11:43:52.359,-10.986328,0.731445,0.683594,-0.014893,0.02124,-0.018066,0.,0.,0.,-3.067871,-0.003662,0.071533,0.507812,123,157,119,233
76.459,11:43:52.459,-9.798828,-0.817383,-1.866211,-0.038086,-0.05957,0.015869,0.,0.,0.,-3.067871,-0.00293,0.05957,0.507812,121,157,119,267
76.559,11:43:52.559,-9.798828,-0.817383,-1.866211,-0.038086,-0.05957,0.015869,0.,0.,0.,-3.067871,-0.00293,0.05957,0.507812,121,157,119,267
76.659,11:43:52.659,-11.077148,0.446289,1.006836,-0.015869,-0.054199,0.011475,0.,0.,0.,-3.067871,-0.000488,0.05957,0.511719,121,156,120,220
76.759,11:43:52.759,-9.43457,0.175781,-0.170898,-0.039307,0.103027,-0.062744,0.,0.,0.,-3.067383,-0.000977,0.060059,0.511719,118,155,120,190
76.859,11:43:52.859,-9.665039,-0.222656,-0.982422,-0.028564,0.034912,-0.024414,0.,0.,0.,-3.067139,0.003174,0.057617,0.519531,117,155,120,191
76.959,11:43:52.959,-10.110352,0.375,0.370117,-0.019043,-0.013672,0.039307,0.,0.,0.,-3.066895,0.00415,0.054932,0.519531,115,154,121,192
77.059,11:43:53.059,-9.540039,-0.555664,-1.234375,-0.031738,-0.224365,-0.453125,0.,0.,0.,-3.066895,-0.008789,0.05249,0.523438,114,153,120,192
77.159,11:43:53.159,-9.793945,-1.301758,-1.999023,-0.062744,-0.013672,-0.112793,0.,0.,0.,-3.06665,-0.026611,0.047119,0.53125,111,153,120,193
77.259,11:43:53.259,-9.535156,0.679688,0.583984,-0.027588,0.04248,0.396729,0.,0.,0.,-3.068359,-0.019531,0.041992,0.542969,110,154,119,215
77.359,11:43:53.359,-9.526367,-0.018555,-1.030273,-0.005127,-0.077637,-0.184082,0.,0.,0.,-3.068604,-0.003906,0.037598,0.539062,106,157,119,209
77.459,11:43:53.459,-10.301758,-0.360352,-0.90625,-0.028564,-0.060547,-0.066895,0.,0.,0.,-3.067139,-0.002686,0.034912,0.535156,106,155,119,196
77.559,11:43:53.559,-10.420898,0.446289,0.973633,0.005127,0.110596,0.030762,0.,0.,0.,-3.06665,-0.005127,0.033691,0.535156,105,153,119,196
77.659,11:43:53.659,-9.602539,-0.051758,-0.246094,-0.037109,0.029785,-0.003174,0.,0.,0.,-3.067139,-0.005371,0.036865,0.539062,105,153,120,201
77.759,11:43:53.759,-9.602539,-0.051758,-0.246094,-0.037109,0.029785,-0.003174,0.,0.,0.,-3.067139,-0.005371,0.036865,0.539062,105,153,120,201
77.859,11:43:53.859,-9.602539,-0.051758,-0.246094,-0.037109,0.029785,-0.003174,0.,0.,0.,-3.067139,-0.005371,0.036865,0.539062,105,153,120,201
77.959,11:43:53.959,-9.870117,0.037109,0.089844,-0.032959,-0.00415,0.027588,0.,0.,0.,-3.066162,-0.008789,0.052734,0.558594,105,153,119,196
78.059,11:43:54.059,-9.957031,-0.375,-0.788086,0.012695,0.018066,-0.051025,0.,0.,0.,-3.065186,-0.001465,0.056152,0.554688,105,155,119,195
78.159,11:43:54.159,-9.957031,-0.375,-0.788086,0.012695,0.018066,-0.051025,0.,0.,0.,-3.065186,-0.001465,0.056152,0.554688,105,155,119,195
78.259,11:43:54.259,-11.067383,0.161133,1.386719,0.003174,0.145752,-0.095703,0.,0.,0.,-3.063477,0.000488,0.058105,0.554688,106,154,119,194
78.359,11:43:54.359,-11.067383,0.161133,1.386719,0.003174,0.145752,-0.095703,0.,0.,0.,-3.063477,0.000488,0.058105,0.554688,106,154,119,194
78.459,11:43:54.459,-9.071289,-0.769531,-0.94043,0.015869,0.031738,0.005127,0.,0.,0.,-3.061279,-0.001953,0.062012,0.554688,107,154,119,194
78.559,11:43:54.559,-9.866211,-0.232422,-0.232422,-0.04248,-0.056396,0.02124,0.,0.,0.,-3.060303,-0.004639,0.06543,0.554688,108,154,119,193
78.659,11:43:54.659,-9.660156,-0.237305,0.260742,-0.000977,0.101074,-0.283936,0.,0.,0.,-3.059814,-0.006348,0.066406,0.554688,109,155,119,191
78.759,11:43:54.759,-10.755859,-0.360352,1.115234,-0.063721,0.116943,-0.063721,0.,0.,0.,-3.060303,-0.028564,0.077393,0.554688,111,157,120,195
78.859,11:43:54.859,-10.755859,-0.360352,1.115234,-0.063721,0.116943,-0.063721,0.,0.,0.,-3.060303,-0.028564,0.077393,0.554688,111,157,120,195
78.959,11:43:54.959,-9.760742,-0.285156,-0.061523,-0.00415,-0.025391,-0.031738,0.,0.,0.,-3.063477,0.004883,0.083008,0.546875,116,157,119,194
79.059,11:43:55.059,-10.306641,1.226562,0.279297,0.006348,-0.052002,-0.02002,0.,0.,0.,-3.062988,0.003174,0.08252,0.539062,117,154,120,188
79.159,11:43:55.159,-9.708008,-0.108398,-1.542969,-0.038086,0.038086,0.066895,0.,0.,0.,-3.062744,0.003662,0.083252,0.535156,118,153,120,187
79.259,11:43:55.259,-10.071289,-0.099609,0.550781,-0.028564,0.023193,-0.039307,0.,0.,0.,-3.062012,0.003906,0.07959,0.53125,119,153,120,219
79.359,11:43:55.359,-9.779297,0.974609,0.811523,0.005127,-0.083008,-0.043457,0.,0.,0.,-3.062988,0.003906,0.078613,0.53125,119,153,120,267
79.459,11:43:55.459,-9.081055,-1.011719,-1.794922,-0.027588,0.015869,-0.087158,0.,0.,0.,-3.063721,0.005859,0.072998,0.535156,121,153,121,263
79.559,11:43:55.559,-9.894531,0.151367,0.62207,0.001953,0.005127,0.008301,0.,0.,0.,-3.063232,0.003662,0.074951,0.535156,121,153,121,258
79.659,11:43:55.659,-9.9375,0.179688,1.405273,-0.012695,0.146729,-0.030762,0.,0.,0.,-3.062256,0.000244,0.074951,0.535156,122,153,121,258
79.759,11:43:55.759,-10.253906,-0.336914,-1.139648,-0.030762,0.025391,0.000977,0.,0.,0.,-3.062988,0.000977,0.074951,0.539062,122,154,121,258
79.859,11:43:55.859,-9.96582,0.731445,0.711914,-0.00415,0.034912,0.000977,0.,0.,0.,-3.0625,-0.001709,0.084229,0.542969,123,154,121,230
79.959,11:43:55.959,-9.96582,0.731445,0.711914,-0.00415,0.034912,0.000977,0.,0.,0.,-3.0625,-0.001709,0.084229,0.542969,123,154,121,230
80.059,11:43:56.059,-9.540039,0.080078,-0.75,-0.011475,-0.010498,-0.09668,0.,0.,0.,-3.061035,-0.000244,0.083008,0.542969,122,155,121,188
80.159,11:43:56.159,-9.305664,0.237305,-1.329102,-0.034912,0.026367,-0.060547,0.,0.,0.,-3.060791,0.001953,0.075195,0.542969,122,155,121,215
80.259,11:43:56.259,-9.338867,-0.893555,-0.583984,-0.030762,-0.027588,-0.134033,0.,0.,0.,-3.063721,-0.018066,0.061523,0.546875,121,155,120,229
80.359,11:43:56.359,-9.25293,0.750977,-0.99707,-0.065918,-0.032959,0.22876,0.,0.,0.,-3.066162,-0.008789,0.057373,0.550781,121,155,119,188
80.459,11:43:56.459,-10.50293,-0.066406,1.671875,-0.039307,0.05835,0.139404,0.,0.,0.,-3.069824,-0.003906,0.057617,0.546875,121,155,118,195
80.559,11:43:56.559,-9.444336,0.237305,-0.792969,-0.046631,0.005127,-0.126465,0.,0.,0.,-3.072998,-0.000977,0.055176,0.542969,121,155,118,206
80.659,11:43:56.659,-9.444336,0.237305,-0.792969,-0.046631,0.005127,-0.126465,0.,0.,0.,-3.072998,-0.000977,0.055176,0.542969,121,155,118,206
80.759,11:43:56.759,-10.052734,-0.108398,0.023438,-0.040283,0.018066,-0.487305,0.,0.,0.,-3.077637,-0.012695,0.057373,0.539062,120,146,117,207
80.859,11:43:56.859,-9.894531,0.583984,0.179688,-0.049805,0.071289,-0.110596,0.,0.,0.,-3.081299,-0.060547,0.056152,0.546875,120,119,117,193
80.959,11:43:56.959,-9.894531,0.583984,0.179688,-0.049805,0.071289,-0.110596,0.,0.,0.,-3.081299,-0.060547,0.056152,0.546875,120,119,117,193
81.059,11:43:57.059,-9.952148,-0.512695,-1.557617,-0.112793,0.007324,0.488281,0.,0.,0.,-3.086426,-0.068359,0.056152,0.550781,119,119,117,185
81.159,11:43:57.159,-9.391602,1.117188,0.612305,-0.00415,-0.014893,-0.005127,0.,0.,0.,-3.089355,-0.00293,0.055176,0.542969,119,156,116,207
81.259,11:43:57.259,-9.391602,1.117188,0.612305,-0.00415,-0.014893,-0.005127,0.,0.,0.,-3.089355,-0.00293,0.055176,0.542969,119,156,116,207
81.359,11:43:57.359,-9.688477,0.018555,0.222656,-0.028564,0.025391,-0.05835,0.,0.,0.,-3.0896,0.000244,0.050537,0.527344,119,155,116,187
81.459,11:43:57.459,-10.234375,0.679688,1.048828,0.005127,0.018066,-0.033936,0.,0.,0.,-3.090576,-0.003906,0.053467,0.527344,120,155,117,188
81.559,11:43:57.559,-9.506836,0.232422,-0.693359,-0.030762,0.112793,-0.031738,0.,0.,0.,-3.090576,0.001221,0.055664,0.527344,121,154,119,189
81.659,11:43:57.659,-10.526367,0.484375,0.859375,-0.001953,0.022217,-0.047852,0.,0.,0.,-3.090088,0.002197,0.058838,0.527344,123,154,120,236
81.759,11:43:57.759,-10.095703,-0.18457,1.671875,0.000977,0.0979,0.146729,0.,0.,0.,-3.088867,0.004639,0.059326,0.527344,123,153,120,268
81.859,11:43:57.859,-9.822266,-0.213867,-0.873047,-0.008301,-0.015869,0.012695,0.,0.,0.,-3.088623,0.010986,0.05835,0.527344,124,153,120,266
81.959,11:43:57.959,-9.822266,-0.213867,-0.873047,-0.008301,-0.015869,0.012695,0.,0.,0.,-3.088623,0.010986,0.05835,0.527344,124,153,120,266
82.059,11:43:58.059,-10.986328,0.665039,0.617188,-0.001953,0.300049,-0.144531,0.,0.,0.,-3.088135,0.010498,0.06665,0.527344,124,153,120,266
82.159,11:43:58.159,-9.233398,0.146484,-0.089844,0.007324,-0.342529,-0.04248,0.,0.,0.,-3.086182,0.002197,0.089844,0.53125,126,153,121,265
82.259,11:43:58.259,-9.62207,-0.170898,0.051758,-0.025391,0.056396,-0.123291,0.,0.,0.,-3.08667,0.001221,0.068359,0.539062,127,154,121,262
82.359,11:43:58.359,-10.066406,-0.289062,1.376953,-0.028564,-0.012695,0.02124,0.,0.,0.,-3.086182,0.00293,0.057861,0.542969,128,155,121,260
82.459,11:43:58.459,-10.541016,0.451172,0.892578,-0.003174,-0.014893,0.108398,0.,0.,0.,-3.085693,-0.000732,0.059326,0.546875,129,158,120,260
82.559,11:43:58.559,-9.295898,0.018555,0.507812,-0.034912,0.05957,-0.069092,0.,0.,0.,-3.086182,-0.00293,0.060303,0.550781,130,157,120,259
82.659,11:43:58.659,-9.587891,-0.336914,-1.462891,-0.064697,-0.032959,-0.099854,0.,0.,0.,-3.087158,-0.000732,0.061523,0.554688,131,157,120,258
82.759,11:43:58.759,-9.688477,0.850586,0.75,0.001953,0.038086,-0.008301,0.,0.,0.,-3.087402,0.001221,0.060303,0.554688,133,157,120,241
82.859,11:43:58.859,-9.688477,0.850586,0.75,0.001953,0.038086,-0.008301,0.,0.,0.,-3.087402,0.001221,0.060303,0.554688,133,157,120,241
82.959,11:43:58.959,-9.688477,0.850586,0.75,0.001953,0.038086,-0.008301,0.,0.,0.,-3.087402,0.001221,0.060303,0.554688,133,157,120,241
83.059,11:43:59.059,-9.511719,0.479492,-0.484375,-0.023193,0.091309,-0.0979,0.,0.,0.,-3.087646,-0.003662,0.063965,0.550781,131,156,115,188
83.159,11:43:59.159,-9.957031,0.289062,1.006836,-0.015869,0.033936,-0.074463,0.,0.,0.,-3.087402,-0.006104,0.062988,0.554688,110,157,115,171
83.259,11:43:59.259,-10.612305,0.874023,0.678711,-0.015869,-0.167969,-0.057373,0.,0.,0.,-3.087891,-0.015625,-0.003662,0.558594,141,163,112,167
83.359,11:43:59.359,-10.612305,0.874023,0.678711,-0.015869,-0.167969,-0.057373,0.,0.,0.,-3.087891,-0.015625,-0.003662,0.558594,141,163,112,167
83.459,11:43:59.459,-9.683594,0.507812,0.080078,-0.00415,-0.241455,0.063721,0.,0.,0.,-3.087158,-0.013184,0.11084,0.558594,147,163,113,178
83.559,11:43:59.559,-8.865234,-0.094727,-0.973633,0.001953,0.044678,-0.139404,0.,0.,0.,-3.08667,-0.009766,0.092529,0.554688,149,164,110,226
83.659,11:43:59.659,-10.875977,0.479492,0.954102,-0.013672,-0.109375,-0.049805,0.,0.,0.,-3.086182,-0.007568,0.080566,0.5625,152,165,109,241
83.759,11:43:59.759,-10.875977,0.479492,0.954102,-0.013672,-0.109375,-0.049805,0.,0.,0.,-3.086182,-0.007568,0.080566,0.5625,152,165,109,241
83.859,11:43:59.859,-8.601562,0.013672,-0.099609,-0.007324,-0.019043,-0.114746,0.,0.,0.,-3.085449,-0.011963,0.070557,0.570312,155,166,107,212
83.959,11:43:59.959,-8.601562,0.013672,-0.099609,-0.007324,-0.019043,-0.114746,0.,0.,0.,-3.085449,-0.011963,0.070557,0.570312,155,166,107,212
84.059,11:44:0.059,-8.754883,0.575195,-1.542969,-0.024414,0.075439,-0.054199,0.,0.,0.,-3.086182,-0.01416,0.063477,0.570312,155,166,106,175
84.159,11:44:0.159,-8.754883,0.575195,-1.542969,-0.024414,0.075439,-0.054199,0.,0.,0.,-3.086182,-0.01416,0.063477,0.570312,155,166,106,175
84.259,11:44:0.259,-7.860352,-0.336914,0.227539,-0.029785,-0.167969,0.,0.,0.,0.,-3.085693,-0.018555,0.060791,0.570312,157,166,106,194
84.359,11:44:0.359,-7.860352,-0.336914,0.227539,-0.029785,-0.167969,0.,0.,0.,0.,-3.085693,-0.018555,0.060791,0.570312,157,166,106,194
84.459,11:44:0.459,-7.285156,-0.293945,1.015625,-0.014893,0.052002,-0.052979,0.,0.,0.,-3.086426,-0.015137,0.057373,0.566406,157,167,105,223
84.559,11:44:0.559,-7.285156,-0.293945,1.015625,-0.014893,0.052002,-0.052979,0.,0.,0.,-3.086426,-0.015137,0.057373,0.566406,157,167,105,223
84.659,11:44:0.659,-7.433594,0.270508,-1.300781,-0.02124,-0.029785,-0.014893,0.,0.,0.,-3.086426,-0.012695,0.049072,0.546875,158,167,105,203
84.759,11:44:0.759,-7.433594,0.270508,-1.300781,-0.02124,-0.029785,-0.014893,0.,0.,0.,-3.086426,-0.012695,0.049072,0.546875,158,167,105,203
84.859,11:44:0.859,-7.433594,0.270508,-1.300781,-0.02124,-0.029785,-0.014893,0.,0.,0.,-3.086426,-0.012695,0.049072,0.546875,158,167,105,203
84.959,11:44:0.959,-7.433594,0.270508,-1.300781,-0.02124,-0.029785,-0.014893,0.,0.,0.,-3.086426,-0.012695,0.049072,0.546875,158,167,105,203
85.059,11:44:1.059,-10.828125,-0.389648,-0.94043,-0.036133,0.038086,-0.014893,0.,0.,0.,-3.088135,-0.013184,0.053467,0.328125,161,168,104,231
85.159,11:44:1.159,-10.828125,-0.389648,-0.94043,-0.036133,0.038086,-0.014893,0.,0.,0.,-3.088135,-0.013184,0.053467,0.328125,161,168,104,231
85.259,11:44:1.259,-95.287109,14.594727,-8.054688,-0.018066,-1.239746,1.796143,0.,0.,0.,-3.085449,0.003906,0.023682,0.222656,166,154,104,138
85.359,11:44:1.359,-13.34082,-0.298828,-0.811523,0.044678,-0.897949,0.089355,0.,0.,0.,-3.085693,-0.012695,0.048584,0.222656,169,100,105,97
85.459,11:44:1.459,-9.363281,0.,2.55957,0.032959,0.300049,-0.109375,0.,0.,0.,-3.082764,-0.010498,0.072266,0.222656,170,83,106,36
85.559,11:44:1.559,-8.827148,1.235352,0.792969,-0.149902,2.842285,2.357178,0.,0.,0.,-3.075684,0.077881,0.130127,0.222656,172,85,106,36
85.659,11:44:1.659,-4.671875,-0.665039,-1.386719,0.045654,0.820312,-1.274902,0.,0.,0.,-3.059082,0.190674,0.31958,0.222656,172,155,104,150
85.759,11:44:1.759,-4.671875,-0.665039,-1.386719,0.045654,0.820312,-1.274902,0.,0.,0.,-3.059082,0.190674,0.31958,0.222656,172,155,104,150
85.859,11:44:1.859,-3.063477,-0.517578,-0.070312,0.060547,0.970459,-2.574219,0.,0.,0.,-3.053467,-0.007324,0.415771,0.222656,172,173,104,226
85.959,11:44:1.959,-3.063477,-0.517578,-0.070312,0.060547,0.970459,-2.574219,0.,0.,0.,-3.053467,-0.007324,0.415771,0.222656,172,173,104,226
86.059,11:44:2.059,-1.349609,-3.013672,-5.984375,3.02002,-3.545898,0.40332,0.,0.,0.,-2.511963,0.651611,0.061523,0.222656,169,184,105,195
86.159,11:44:2.159,-10.899414,-5.28125,-0.066406,-0.74707,0.869385,-5.604004,0.,0.,0.,-2.519287,0.450195,0.025879,0.222656,187,187,105,173
86.259,11:44:2.259,-5.427734,-1.625,0.161133,0.011475,-0.811768,-4.47583,0.,0.,0.,-2.55127,0.108154,0.021729,0.222656,200,187,106,107
86.359,11:44:2.359,-11.225586,8.338867,2.151367,0.179688,1.228027,-0.88208,0.,0.,0.,-2.56665,-0.16333,0.073975,0.214844,187,188,110,63
86.459,11:44:2.459,-11.225586,8.338867,2.151367,0.179688,1.228027,-0.88208,0.,0.,0.,-2.56665,-0.16333,0.073975,0.214844,187,188,110,63
86.559,11:44:2.559,-10.536133,0.,2.920898,0.258545,-1.335449,3.000977,0.,0.,0.,-2.551758,-0.006836,0.096191,0.234375,179,194,111,62
86.659,11:44:2.659,-9.72168,-3.436523,-5.594727,0.184082,-0.300049,-0.099854,0.,0.,0.,-2.548584,0.119141,-0.057861,0.234375,179,194,111,62
86.759,11:44:2.759,-10.669922,0.041992,1.866211,0.056396,1.400391,-1.405762,0.,0.,0.,-2.549805,0.011963,0.058594,0.230469,180,193,109,62
86.859,11:44:2.859,-9.358398,1.692383,0.655273,-0.030762,-0.844971,0.824707,0.,0.,0.,-2.560059,-0.027344,0.070557,0.238281,178,199,108,62
86.959,11:44:2.959,-9.358398,1.692383,0.655273,-0.030762,-0.844971,0.824707,0.,0.,0.,-2.560059,-0.027344,0.070557,0.238281,178,199,108,62
87.059,11:44:3.059,-9.818359,1.087891,-0.332031,-0.016846,0.526611,-0.793701,0.,0.,0.,-2.567871,0.006592,0.042969,0.242188,184,208,115,63
87.159,11:44:3.159,-9.760742,0.15625,0.550781,-0.012695,-0.476562,0.489502,0.,0.,0.,-2.571289,0.008545,0.051025,0.242188,189,209,114,62
87.259,11:44:3.259,-9.416016,0.603516,0.194336,-0.033936,0.208496,-0.25,0.,0.,0.,-2.581543,0.009033,0.043701,0.242188,196,208,114,62
87.359,11:44:3.359,-9.416016,0.603516,0.194336,-0.033936,0.208496,-0.25,0.,0.,0.,-2.581543,0.009033,0.043701,0.242188,196,208,114,62
87.459,11:44:3.459,-9.980469,-0.137695,-0.066406,-0.016846,-0.321289,0.253174,0.,0.,0.,-2.585205,0.023682,0.034668,0.242188,188,208,114,62
87.559,11:44:3.559,-9.625977,-0.517578,-0.003906,-0.024414,0.209473,-0.282959,0.,0.,0.,-2.5896,0.03418,0.028076,0.242188,184,210,114,62
87.659,11:44:3.659,-9.760742,0.293945,0.151367,-0.001953,0.044678,0.05835,0.,0.,0.,-2.595215,0.016357,0.040283,0.242188,178,209,114,61
87.759,11:44:3.759,-9.770508,-0.408203,-0.72168,-0.006348,-0.072266,0.105225,0.,0.,0.,-2.599365,0.030518,0.026855,0.246094,179,208,115,61
87.859,11:44:3.859,-9.870117,0.170898,-0.174805,-0.02002,0.073242,-0.184082,0.,0.,0.,-2.604248,0.023682,0.032959,0.242188,185,209,118,61
87.959,11:44:3.959,-9.870117,0.170898,-0.174805,-0.02002,0.073242,-0.184082,0.,0.,0.,-2.604248,0.023682,0.032959,0.242188,185,209,118,61
88.059,11:44:4.059,-9.673828,-0.217773,-0.023438,-0.014893,0.091309,-0.104248,0.,0.,0.,-2.613525,0.028076,0.030518,0.246094,176,211,116,61
88.159,11:44:4.159,-9.736328,-0.075195,-0.166016,-0.011475,-0.001953,0.04248,0.,0.,0.,-2.618408,0.024658,0.032227,0.242188,181,212,116,61
88.259,11:44:4.259,-9.750977,-0.108398,-0.161133,-0.016846,0.065918,-0.076416,0.,0.,0.,-2.622803,0.026611,0.030518,0.242188,204,204,116,61
88.359,11:44:4.359,-9.827148,-0.123047,-0.313477,-0.008301,-0.007324,0.011475,0.,0.,0.,-2.627686,0.025879,0.031006,0.242188,212,200,114,61
88.459,11:44:4.459,-9.952148,-0.113281,-0.18457,-0.015869,0.02002,-0.052979,0.,0.,0.,-2.632324,0.025391,0.03125,0.242188,212,207,114,61
88.559,11:44:4.559,-9.894531,-0.24707,-0.208984,-0.010498,0.015869,-0.030762,0.,0.,0.,-2.636963,0.026367,0.030762,0.242188,211,212,114,61
88.659,11:44:4.659,-9.798828,-0.166016,-0.222656,-0.011475,0.012695,-0.011475,0.,0.,0.,-2.641357,0.025635,0.031006,0.246094,210,218,114,61
88.759,11:44:4.759,-9.760742,-0.051758,-0.194336,-0.013672,0.024414,-0.032959,0.,0.,0.,-2.645996,0.025391,0.031006,0.246094,205,223,114,61
88.859,11:44:4.859,-9.78418,-0.194336,-0.151367,-0.012695,0.016846,-0.029785,0.,0.,0.,-2.650391,0.025635,0.030762,0.242188,193,216,114,61
88.959,11:44:4.959,-9.78418,-0.194336,-0.151367,-0.012695,0.016846,-0.029785,0.,0.,0.,-2.650391,0.025635,0.030762,0.242188,193,216,114,61
89.059,11:44:5.059,-9.894531,-0.199219,-0.204102,-0.012695,0.016846,-0.029785,0.,0.,0.,-2.659424,0.025146,0.031006,0.242188,191,213,114,61
89.159,11:44:5.159,-9.870117,-0.161133,-0.199219,-0.013672,0.014893,-0.028564,0.,0.,0.,-2.664062,0.025146,0.031006,0.242188,188,214,113,61
89.259,11:44:5.259,-9.870117,-0.161133,-0.199219,-0.013672,0.014893,-0.028564,0.,0.,0.,-2.664062,0.025146,0.031006,0.242188,188,214,113,61
89.359,11:44:5.359,-9.774414,-0.137695,-0.204102,-0.014893,0.014893,-0.027588,0.,0.,0.,-2.690918,0.024414,0.03125,0.242188,182,222,110,62
89.459,11:44:5.459,-9.774414,-0.137695,-0.204102,-0.014893,0.014893,-0.027588,0.,0.,0.,-2.690918,0.024414,0.03125,0.242188,182,222,110,62
89.559,11:44:5.559,-9.832031,-0.199219,-0.222656,-0.009521,0.014893,-0.025391,0.,0.,0.,-2.695312,0.024414,0.03125,0.242188,173,215,110,61
