Time,UTC,FINKEN_SENSOR_MODEL:acceleration_z,FINKEN_SENSOR_MODEL:acceleration_y,FINKEN_SENSOR_MODEL:acceleration_x,FINKEN_SENSOR_MODEL:velocity_yaw,FINKEN_SENSOR_MODEL:velocity_roll,FINKEN_SENSOR_MODEL:velocity_pitch,FINKEN_SENSOR_MODEL:velocity_z,FINKEN_SENSOR_MODEL:velocity_y,FINKEN_SENSOR_MODEL:velocity_x,FINKEN_SENSOR_MODEL:pos_yaw,FINKEN_SENSOR_MODEL:pos_roll,FINKEN_SENSOR_MODEL:pos_pitch,FINKEN_SENSOR_MODEL:pos_z,FINKEN_SENSOR_MODEL:distance_d_back,FINKEN_SENSOR_MODEL:distance_d_left,FINKEN_SENSOR_MODEL:distance_d_rigth,FINKEN_SENSOR_MODEL:distance_d_front
1.654,15:33:23.654,-12.675781,5.357422,5.637695,0.92041,-0.308594,-0.030762,0.,0.,0.,0.,0.,0.,0.234375,135,46,148,205
1.754,15:33:23.754,-9.813477,-0.446289,-0.084961,0.443604,-0.416992,0.213867,0.,0.,0.,0.,0.,0.,0.203125,138,52,147,220
1.854,15:33:23.854,-9.827148,0.033203,0.75,0.279785,-0.314941,-0.110596,0.,0.,0.,0.,0.,0.,0.238281,139,70,147,230
1.954,15:33:23.954,-9.708008,0.736328,0.118164,0.26709,-0.144531,0.00415,0.,0.,0.,0.,0.,0.,0.242188,140,118,146,146
2.054,15:33:24.054,-9.708008,0.736328,0.118164,0.26709,-0.144531,0.00415,0.,0.,0.,0.,0.,0.,0.242188,140,118,146,146
2.154,15:33:24.154,-10.186523,-1.117188,0.293945,-0.711914,0.258545,-0.162598,0.,0.,0.,0.,0.,0.,0.234375,130,146,146,89
2.254,15:33:24.254,-9.185547,0.936523,-0.123047,0.199951,0.008301,-0.043457,0.,0.,0.,0.,0.,0.,0.234375,91,141,146,89
2.354,15:33:24.354,-9.665039,0.712891,-0.037109,-0.11792,-0.0979,0.199951,0.,0.,0.,0.,0.,0.,0.238281,66,135,146,89
2.454,15:33:24.454,-9.870117,0.545898,0.839844,0.095703,-0.333984,0.098877,0.,0.,0.,0.,0.,0.,0.238281,67,136,146,89
2.554,15:33:24.554,-10.110352,0.379883,1.595703,0.247803,-0.056396,-0.026367,0.,0.,0.,0.,0.,0.,0.230469,68,138,146,89
2.654,15:33:24.654,-10.110352,0.379883,1.595703,0.247803,-0.056396,-0.026367,0.,0.,0.,0.,0.,0.,0.230469,68,138,146,89
2.754,15:33:24.754,-8.649414,0.217773,-1.15332,0.408447,-0.263916,-0.170166,0.,0.,0.,0.,0.,0.,0.199219,67,136,146,203
2.854,15:33:24.854,-10.085938,-0.023438,-0.118164,0.17749,-0.639404,0.57251,0.,0.,0.,0.,0.,0.,0.203125,68,135,146,279
2.954,15:33:24.954,-10.018555,-0.15625,-0.298828,0.274414,0.089355,0.071289,0.,0.,0.,0.,0.,0.,0.238281,69,135,145,278
3.054,15:33:25.054,-9.726562,-0.179688,0.146484,-0.313721,-0.203125,0.191406,0.,0.,0.,0.,0.,0.,0.238281,69,135,145,277
3.154,15:33:25.154,-9.861328,-0.422852,-0.94043,-0.029785,-0.310547,-0.006348,0.,0.,0.,0.,0.,0.,0.238281,70,136,144,277
3.254,15:33:25.254,-9.391602,-0.427734,-0.831055,-0.243652,0.055176,-0.142578,0.,0.,0.,0.,0.,0.,0.238281,70,135,144,277
3.354,15:33:25.354,-9.90918,0.298828,-0.041992,-0.218994,0.311768,-0.20752,0.,0.,0.,0.,0.,0.,0.238281,71,135,144,278
3.454,15:33:25.454,-9.669922,-0.669922,-1.010742,0.111572,0.098877,0.129639,0.,0.,0.,0.,0.,0.,0.238281,71,134,144,240
3.554,15:33:25.554,-9.894531,2.176758,0.635742,0.078613,0.141357,0.138184,0.,0.,0.,0.,0.,0.,0.242188,71,134,144,123
3.654,15:33:25.654,-9.650391,-0.789062,-0.336914,-0.045654,0.090332,-0.290527,0.,0.,0.,0.,0.,0.,0.242188,71,134,144,123
3.754,15:33:25.754,-9.655273,-0.260742,-0.023438,-0.016846,-0.075439,0.19458,0.,0.,0.,0.,0.,0.,0.242188,71,135,144,239
3.854,15:33:25.854,-9.55957,0.484375,0.265625,-0.030762,0.026367,-0.015869,0.,0.,0.,0.,0.,0.,0.242188,71,135,144,278
3.954,15:33:25.954,-9.630859,0.217773,0.056641,-0.036133,0.055176,-0.11377,0.,0.,0.,0.,0.,0.,0.242188,66,135,144,278
4.054,15:33:26.054,-9.640625,-0.166016,-0.033203,-0.030762,0.018066,-0.000977,0.,0.,0.,0.,0.,0.,0.242188,51,135,144,278
4.154,15:33:26.154,-9.708008,0.104492,0.094727,-0.026367,0.,0.016846,0.,0.,0.,0.,0.,0.,0.242188,49,135,144,278
4.254,15:33:26.254,-9.669922,0.137695,0.161133,-0.028564,0.012695,-0.014893,0.,0.,0.,0.,0.,0.,0.242188,56,135,144,239
4.354,15:33:26.354,-9.683594,0.289062,0.232422,-0.031738,0.012695,-0.049805,0.,0.,0.,0.,0.,0.,0.242188,58,135,144,125
4.454,15:33:26.454,-9.693359,-0.123047,0.080078,-0.030762,0.018066,-0.02002,0.,0.,0.,0.,0.,0.,0.242188,55,135,144,163
4.554,15:33:26.554,-9.669922,0.137695,0.179688,-0.032959,0.024414,-0.009521,0.,0.,0.,0.,0.,0.,0.242188,80,136,144,277
4.654,15:33:26.654,-9.669922,0.033203,0.12793,-0.030762,0.02002,-0.005127,0.,0.,0.,0.,0.,0.,0.242188,119,136,144,277
4.754,15:33:26.754,-9.665039,0.123047,0.108398,-0.027588,0.010498,-0.009521,0.,0.,0.,0.,0.,0.,0.242188,94,137,144,277
4.854,15:33:26.854,-9.765625,0.084961,0.118164,-0.028564,0.016846,-0.02124,0.,0.,0.,0.,0.,0.,0.242188,57,141,144,277
4.954,15:33:26.954,-9.630859,-0.003906,0.141602,-0.028564,0.022217,-0.02124,0.,0.,0.,0.,0.,0.,0.242188,83,144,144,277
5.054,15:33:27.054,-9.554688,-0.018555,0.080078,-0.030762,0.016846,-0.001953,0.,0.,0.,0.,0.,0.,0.242188,122,141,144,277
5.154,15:33:27.154,-9.554688,-0.018555,0.080078,-0.030762,0.016846,-0.001953,0.,0.,0.,0.,0.,0.,0.242188,122,141,144,277
5.254,15:33:27.254,-9.640625,0.02832,0.084961,-0.029785,0.013672,-0.014893,0.,0.,0.,0.,0.,0.,0.242188,123,140,144,277
5.354,15:33:27.354,-9.678711,-0.260742,0.041992,-0.024414,0.010498,-0.005127,0.,0.,0.,0.,0.,0.,0.242188,123,141,144,277
5.454,15:33:27.454,-9.650391,-0.018555,0.,-0.016846,0.008301,0.003174,0.,0.,0.,0.,0.,0.,0.242188,123,139,144,277
5.554,15:33:27.554,-9.55957,0.075195,0.066406,-0.030762,0.014893,-0.019043,0.,0.,0.,0.,0.,0.,0.242188,125,144,144,277
5.654,15:33:27.654,-9.55957,0.075195,0.066406,-0.030762,0.014893,-0.019043,0.,0.,0.,0.,0.,0.,0.242188,125,144,144,277
5.754,15:33:27.754,-9.625977,0.056641,0.061523,-0.029785,0.02002,-0.030762,0.,0.,0.,0.,0.,0.,0.242188,124,146,144,277
5.854,15:33:27.854,-9.62207,-0.071289,0.041992,-0.032959,0.02002,-0.013672,0.,0.,0.,0.,0.,0.,0.242188,124,146,144,201
5.954,15:33:27.954,-9.793945,-0.075195,0.12793,-0.026367,0.018066,-0.006348,0.,0.,0.,0.,0.,0.,0.238281,125,145,144,87
6.054,15:33:28.054,-9.793945,-0.075195,0.12793,-0.026367,0.018066,-0.006348,0.,0.,0.,0.,0.,0.,0.238281,125,145,144,87
6.154,15:33:28.154,-9.673828,0.046875,0.099609,-0.031738,0.014893,-0.018066,0.,0.,0.,0.,0.,0.,0.242188,128,141,144,163
6.254,15:33:28.254,-9.597656,0.018555,0.113281,-0.030762,0.014893,-0.014893,0.,0.,0.,2.915283,-0.000488,0.052002,0.242188,128,141,144,87
6.354,15:33:28.354,-9.712891,-0.02832,0.094727,-0.029785,0.015869,-0.013672,0.,0.,0.,2.915039,-0.000488,0.052002,0.242188,127,137,144,277
6.454,15:33:28.454,-9.712891,-0.02832,0.094727,-0.029785,0.015869,-0.013672,0.,0.,0.,2.915039,-0.000488,0.052002,0.242188,127,137,144,277
6.554,15:33:28.554,-9.640625,0.02832,0.037109,-0.030762,0.02002,-0.016846,0.,0.,0.,2.915039,-0.000488,0.052002,0.242188,123,136,144,277
6.654,15:33:28.654,-9.640625,0.02832,0.037109,-0.030762,0.02002,-0.016846,0.,0.,0.,2.915039,-0.000488,0.052002,0.242188,123,136,144,277
6.754,15:33:28.754,-9.693359,-0.02832,0.037109,-0.030762,0.012695,-0.013672,0.,0.,0.,2.915283,-0.000488,0.051758,0.242188,123,135,144,277
6.854,15:33:28.854,-9.693359,-0.02832,0.037109,-0.030762,0.012695,-0.013672,0.,0.,0.,2.915283,-0.000488,0.051758,0.242188,123,135,144,277
6.954,15:33:28.954,-9.693359,-0.02832,0.037109,-0.030762,0.012695,-0.013672,0.,0.,0.,2.915283,-0.000488,0.051758,0.242188,123,135,144,277
7.054,15:33:29.054,-9.645508,0.008789,0.113281,-0.026367,0.014893,-0.015869,0.,0.,0.,2.915283,-0.000488,0.052002,0.242188,117,139,144,277
7.154,15:33:29.154,-9.645508,0.008789,0.113281,-0.026367,0.014893,-0.015869,0.,0.,0.,2.915283,-0.000488,0.052002,0.242188,117,139,144,277
7.254,15:33:29.254,-9.640625,-0.037109,0.161133,-0.030762,0.011475,-0.015869,0.,0.,0.,2.915283,-0.000244,0.052002,0.242188,118,138,144,278
7.354,15:33:29.354,-9.640625,-0.037109,0.161133,-0.030762,0.011475,-0.015869,0.,0.,0.,2.915283,-0.000244,0.052002,0.242188,118,138,144,278
7.454,15:33:29.454,-9.645508,0.008789,0.089844,-0.031738,0.014893,-0.011475,0.,0.,0.,2.915283,-0.000244,0.052002,0.242188,120,137,145,87
7.554,15:33:29.554,-9.645508,0.008789,0.089844,-0.031738,0.014893,-0.011475,0.,0.,0.,2.915283,-0.000244,0.052002,0.242188,120,137,145,87
7.654,15:33:29.654,-9.673828,0.02832,0.166016,-0.028564,0.016846,-0.015869,0.,0.,0.,2.915283,-0.000244,0.052002,0.242188,121,138,145,201
7.754,15:33:29.754,-9.635742,0.018555,0.104492,-0.029785,0.015869,-0.014893,0.,0.,0.,2.915039,-0.000244,0.051758,0.242188,118,138,144,278
7.854,15:33:29.854,-9.635742,0.018555,0.104492,-0.029785,0.015869,-0.014893,0.,0.,0.,2.915039,-0.000244,0.051758,0.242188,118,138,144,278
7.954,15:33:29.954,-9.569336,-0.046875,0.104492,-0.028564,0.011475,-0.015869,0.,0.,0.,2.915039,-0.000244,0.051758,0.242188,113,136,144,277
8.054,15:33:30.054,-9.569336,-0.046875,0.104492,-0.028564,0.011475,-0.015869,0.,0.,0.,2.915039,-0.000244,0.051758,0.242188,113,136,144,277
8.154,15:33:30.154,-9.693359,0.008789,0.089844,-0.028564,0.015869,-0.013672,0.,0.,0.,2.915039,-0.000244,0.051758,0.242188,115,134,144,277
8.254,15:33:30.254,-9.750977,0.051758,0.094727,-0.028564,0.011475,-0.014893,0.,0.,0.,2.915039,-0.000244,0.051758,0.242188,116,133,144,277
8.354,15:33:30.354,-9.750977,0.051758,0.094727,-0.028564,0.011475,-0.014893,0.,0.,0.,2.915039,-0.000244,0.051758,0.242188,116,133,144,277
8.454,15:33:30.454,-9.741211,-0.023438,0.066406,-0.028564,0.016846,-0.014893,0.,0.,0.,2.915039,-0.000244,0.051758,0.242188,116,135,145,277
8.554,15:33:30.554,-9.741211,-0.023438,0.066406,-0.028564,0.016846,-0.014893,0.,0.,0.,2.915039,-0.000244,0.051758,0.242188,116,135,145,277
8.654,15:33:30.654,-9.55957,0.018555,0.084961,-0.028564,0.013672,-0.013672,0.,0.,0.,2.915039,-0.000244,0.051758,0.242188,116,135,143,277
8.754,15:33:30.754,-9.55957,0.018555,0.084961,-0.028564,0.013672,-0.013672,0.,0.,0.,2.915039,-0.000244,0.051758,0.242188,116,135,143,277
8.854,15:33:30.854,-9.698242,-0.003906,0.033203,-0.028564,0.012695,-0.014893,0.,0.,0.,2.915039,-0.000244,0.051758,0.242188,117,136,143,277
8.954,15:33:30.954,-9.717773,0.037109,0.084961,-0.027588,0.013672,-0.013672,0.,0.,0.,2.915039,-0.000244,0.051758,0.242188,121,137,145,278
9.054,15:33:31.054,-9.841797,0.62207,-0.289062,-0.060547,-0.046631,-0.9375,0.,0.,0.,2.91626,0.001709,0.050293,0.242188,122,137,145,277
9.154,15:33:31.154,-9.841797,0.62207,-0.289062,-0.060547,-0.046631,-0.9375,0.,0.,0.,2.91626,0.001709,0.050293,0.242188,122,137,145,277
9.254,15:33:31.254,-9.741211,0.878906,0.327148,-0.015869,0.067871,0.286133,0.,0.,0.,2.91626,-0.006348,0.053955,0.242188,123,139,144,276
9.354,15:33:31.354,-9.741211,0.878906,0.327148,-0.015869,0.067871,0.286133,0.,0.,0.,2.91626,-0.006348,0.053955,0.242188,123,139,144,276
9.454,15:33:31.454,-9.770508,0.545898,-0.018555,-0.031738,0.086182,-0.214844,0.,0.,0.,2.916504,-0.002686,0.052002,0.242188,125,139,144,276
9.554,15:33:31.554,-9.770508,0.545898,-0.018555,-0.031738,0.086182,-0.214844,0.,0.,0.,2.916504,-0.002686,0.052002,0.242188,125,139,144,276
9.654,15:33:31.654,-9.770508,0.545898,-0.018555,-0.031738,0.086182,-0.214844,0.,0.,0.,2.916504,-0.002686,0.052002,0.242188,125,139,144,276
9.754,15:33:31.754,-9.625977,-0.213867,0.061523,-0.027588,-0.024414,0.074463,0.,0.,0.,2.916748,0.001465,0.05249,0.242188,125,140,144,277
9.854,15:33:31.854,-9.625977,-0.213867,0.061523,-0.027588,-0.024414,0.074463,0.,0.,0.,2.916748,0.001465,0.05249,0.242188,125,140,144,277
9.954,15:33:31.954,-9.625977,-0.213867,0.061523,-0.027588,-0.024414,0.074463,0.,0.,0.,2.916748,0.001465,0.05249,0.242188,125,140,144,277
10.054,15:33:32.054,-9.688477,-0.066406,0.151367,-0.031738,0.028564,-0.048828,0.,0.,0.,2.916504,0.000488,0.052734,0.242188,124,143,144,277
10.154,15:33:32.154,-9.688477,-0.066406,0.151367,-0.031738,0.028564,-0.048828,0.,0.,0.,2.916504,0.000488,0.052734,0.242188,124,143,144,277
10.254,15:33:32.254,-9.587891,0.003906,0.123047,-0.028564,0.019043,-0.00415,0.,0.,0.,2.916504,0.000732,0.05249,0.242188,122,140,144,277
10.354,15:33:32.354,-9.587891,0.003906,0.123047,-0.028564,0.019043,-0.00415,0.,0.,0.,2.916504,0.000732,0.05249,0.242188,122,140,144,277
10.454,15:33:32.454,-9.607422,-0.013672,0.084961,-0.029785,0.010498,0.008301,0.,0.,0.,2.916504,0.,0.05249,0.242188,122,139,144,277
10.554,15:33:32.554,-9.607422,-0.013672,0.084961,-0.029785,0.010498,0.008301,0.,0.,0.,2.916504,0.,0.05249,0.242188,122,139,144,277
10.654,15:33:32.654,-9.665039,-0.108398,0.15625,-0.029785,0.027588,-0.023193,0.,0.,0.,2.916504,0.000244,0.05249,0.242188,122,138,144,278
10.754,15:33:32.754,-9.665039,-0.108398,0.15625,-0.029785,0.027588,-0.023193,0.,0.,0.,2.916504,0.000244,0.05249,0.242188,122,138,144,278
10.854,15:33:32.854,-9.617188,-0.280273,0.161133,-0.028564,0.014893,0.010498,0.,0.,0.,2.916504,0.,0.052734,0.242188,121,138,144,280
10.954,15:33:32.954,-9.617188,-0.280273,0.161133,-0.028564,0.014893,0.010498,0.,0.,0.,2.916504,0.,0.052734,0.242188,121,138,144,280
11.054,15:33:33.054,-9.774414,0.061523,0.023438,-0.022217,0.009521,-0.006348,0.,0.,0.,2.916504,0.000244,0.052246,0.242188,121,138,145,86
11.154,15:33:33.154,-9.708008,0.023438,0.056641,-0.025391,0.011475,-0.008301,0.,0.,0.,2.91626,0.,0.052246,0.242188,121,138,145,200
11.254,15:33:33.254,-9.655273,-0.061523,0.070312,-0.036133,0.027588,-0.024414,0.,0.,0.,2.91626,0.000244,0.052002,0.242188,118,139,145,280
11.354,15:33:33.354,-9.655273,-0.061523,0.070312,-0.036133,0.027588,-0.024414,0.,0.,0.,2.91626,0.000244,0.052002,0.242188,118,139,145,280
11.454,15:33:33.454,-9.72168,0.003906,0.12793,-0.025391,0.010498,-0.007324,0.,0.,0.,2.91626,0.,0.052002,0.242188,118,139,145,87
11.554,15:33:33.554,-9.72168,0.003906,0.12793,-0.025391,0.010498,-0.007324,0.,0.,0.,2.91626,0.,0.052002,0.242188,118,139,145,87
11.654,15:33:33.654,-9.617188,0.02832,0.099609,-0.030762,0.010498,-0.014893,0.,0.,0.,2.91626,0.,0.052002,0.242188,118,139,145,201
11.754,15:33:33.754,-9.617188,0.02832,0.099609,-0.030762,0.010498,-0.014893,0.,0.,0.,2.91626,0.,0.052002,0.242188,118,139,145,201
11.854,15:33:33.854,-9.703125,0.003906,0.132812,-0.030762,0.015869,-0.02002,0.,0.,0.,2.91626,0.,0.052002,0.242188,118,140,145,277
11.954,15:33:33.954,-9.765625,-0.123047,0.108398,-0.028564,0.016846,-0.013672,0.,0.,0.,2.91626,0.000244,0.052002,0.242188,118,144,145,87
12.054,15:33:34.054,-9.72168,0.,0.12793,-0.030762,0.015869,-0.011475,0.,0.,0.,2.91626,0.000244,0.052002,0.242188,118,147,145,201
12.154,15:33:34.154,-9.583008,0.02832,0.179688,-0.029785,0.012695,-0.014893,0.,0.,0.,2.91626,0.000244,0.052002,0.242188,116,144,145,277
12.254,15:33:34.254,-9.683594,0.02832,0.104492,-0.028564,0.015869,-0.012695,0.,0.,0.,2.91626,0.000244,0.052002,0.242188,116,141,144,277
12.354,15:33:34.354,-9.554688,-0.051758,0.041992,-0.026367,0.013672,-0.015869,0.,0.,0.,2.91626,0.000244,0.052002,0.242188,116,139,144,277
12.454,15:33:34.454,-9.607422,0.046875,0.132812,-0.027588,0.015869,-0.016846,0.,0.,0.,2.91626,0.000244,0.052002,0.242188,116,138,144,277
12.554,15:33:34.554,-9.62207,-0.041992,0.12793,-0.029785,0.014893,-0.016846,0.,0.,0.,2.91626,0.000244,0.052002,0.242188,117,138,144,277
12.654,15:33:34.654,-9.62207,-0.041992,0.12793,-0.029785,0.014893,-0.016846,0.,0.,0.,2.91626,0.000244,0.052002,0.242188,117,138,144,277
12.754,15:33:34.754,-9.712891,-0.046875,0.046875,-0.030762,0.015869,-0.014893,0.,0.,0.,2.91626,0.000244,0.052002,0.242188,117,137,144,239
12.854,15:33:34.854,-9.712891,-0.046875,0.046875,-0.030762,0.015869,-0.014893,0.,0.,0.,2.91626,0.000244,0.052002,0.242188,117,137,144,239
12.954,15:33:34.954,-9.669922,-0.041992,0.108398,-0.029785,0.014893,-0.015869,0.,0.,0.,2.91626,0.000244,0.051758,0.242188,117,137,144,86
13.054,15:33:35.054,-9.597656,0.,0.061523,-0.032959,0.014893,-0.015869,0.,0.,0.,2.91626,0.000244,0.051758,0.242188,117,139,144,86
13.154,15:33:35.154,-9.597656,0.,0.061523,-0.032959,0.014893,-0.015869,0.,0.,0.,2.91626,0.000244,0.051758,0.242188,117,139,144,86
13.254,15:33:35.254,-9.607422,-0.003906,0.066406,-0.029785,0.016846,-0.014893,0.,0.,0.,2.916016,0.000244,0.051758,0.242188,117,138,144,124
13.354,15:33:35.354,-9.683594,0.056641,0.051758,-0.031738,0.014893,-0.015869,0.,0.,0.,2.91626,0.000244,0.051758,0.242188,117,137,144,276
13.454,15:33:35.454,-9.683594,0.056641,0.051758,-0.031738,0.014893,-0.015869,0.,0.,0.,2.91626,0.000244,0.051758,0.242188,117,137,144,276
13.554,15:33:35.554,-9.645508,-0.033203,0.051758,-0.029785,0.016846,-0.012695,0.,0.,0.,2.91626,0.000244,0.051758,0.242188,117,137,144,276
13.654,15:33:35.654,-9.72168,0.003906,0.061523,-0.030762,0.018066,-0.012695,0.,0.,0.,2.916016,0.000244,0.051758,0.242188,117,137,144,276
13.754,15:33:35.754,-9.630859,0.056641,0.075195,-0.028564,0.016846,-0.016846,0.,0.,0.,2.91626,0.000244,0.051758,0.242188,117,137,144,276
13.854,15:33:35.854,-9.72168,-0.033203,0.056641,-0.031738,0.015869,-0.015869,0.,0.,0.,2.91626,0.000244,0.051758,0.242188,120,136,144,238
13.954,15:33:35.954,-9.741211,-0.037109,0.18457,-0.028564,0.011475,-0.015869,0.,0.,0.,2.91626,0.000244,0.051514,0.242188,121,136,144,124
14.054,15:33:36.054,-9.592773,-0.013672,0.066406,-0.030762,0.015869,-0.015869,0.,0.,0.,2.916016,0.000244,0.051514,0.242188,120,136,144,238
14.154,15:33:36.154,-9.688477,0.003906,0.123047,-0.029785,0.013672,-0.015869,0.,0.,0.,2.916016,0.000244,0.051514,0.242188,120,136,144,277
14.254,15:33:36.254,-9.660156,0.008789,0.118164,-0.026367,0.011475,-0.011475,0.,0.,0.,2.916016,0.000244,0.051514,0.242188,119,136,144,277
14.354,15:33:36.354,-9.650391,-0.089844,0.094727,-0.030762,0.013672,-0.018066,0.,0.,0.,2.916016,0.000244,0.051514,0.242188,119,136,144,277
14.454,15:33:36.454,-9.617188,-0.041992,0.123047,-0.028564,0.013672,-0.016846,0.,0.,0.,2.916016,0.000244,0.051514,0.242188,119,137,144,277
14.554,15:33:36.554,-9.678711,0.013672,0.018555,-0.029785,0.014893,-0.018066,0.,0.,0.,2.916016,0.000244,0.05127,0.242188,119,136,144,277
14.654,15:33:36.654,-9.678711,0.013672,0.018555,-0.029785,0.014893,-0.018066,0.,0.,0.,2.916016,0.000244,0.05127,0.242188,119,136,144,277
14.754,15:33:36.754,-9.755859,-0.037109,0.099609,-0.030762,0.014893,-0.016846,0.,0.,0.,2.916016,0.000244,0.05127,0.242188,119,136,144,277
14.854,15:33:36.854,-9.564453,0.018555,0.037109,-0.029785,0.013672,-0.012695,0.,0.,0.,2.915771,0.000244,0.05127,0.242188,120,135,144,201
14.954,15:33:36.954,-9.564453,0.018555,0.037109,-0.029785,0.013672,-0.012695,0.,0.,0.,2.915771,0.000244,0.05127,0.242188,120,135,144,201
15.054,15:33:37.054,-9.564453,0.018555,0.037109,-0.029785,0.013672,-0.012695,0.,0.,0.,2.915771,0.000244,0.05127,0.242188,120,135,144,201
15.154,15:33:37.154,-9.625977,-0.075195,0.151367,-0.027588,0.015869,-0.014893,0.,0.,0.,2.916016,0.000488,0.05127,0.242188,128,140,144,87
15.254,15:33:37.254,-9.669922,-0.066406,0.113281,-0.028564,0.014893,-0.018066,0.,0.,0.,2.916016,0.000488,0.05127,0.242188,124,138,144,163
15.354,15:33:37.354,-9.650391,0.066406,0.15625,0.016846,0.039307,-0.038086,0.,0.,0.,2.916748,0.000977,0.05127,0.242188,122,137,144,277
15.454,15:33:37.454,-9.564453,-0.255859,-0.141602,-0.014893,-0.00415,0.084961,0.,0.,0.,2.917236,0.000488,0.051758,0.242188,120,138,144,201
15.554,15:33:37.554,-9.320312,1.164062,-0.080078,-0.044678,0.029785,-0.030762,0.,0.,0.,2.91748,0.000732,0.051514,0.242188,130,138,144,87
15.654,15:33:37.654,-9.320312,1.164062,-0.080078,-0.044678,0.029785,-0.030762,0.,0.,0.,2.91748,0.000732,0.051514,0.242188,130,138,144,87
15.754,15:33:37.754,-9.818359,0.089844,-0.246094,-0.015869,-0.081787,0.000977,0.,0.,0.,2.917969,0.000488,0.051514,0.242188,129,138,144,87
15.854,15:33:37.854,-9.617188,-0.351562,0.199219,-0.030762,0.076416,-0.107422,0.,0.,0.,2.918213,0.000244,0.051758,0.242188,128,139,144,163
15.954,15:33:37.954,-10.46875,-0.446289,1.524414,-0.034912,0.014893,0.031738,0.,0.,0.,2.918213,0.000732,0.051514,0.242188,124,139,144,277
16.054,15:33:38.054,-8.889648,-0.422852,-0.977539,-0.019043,0.012695,0.026367,0.,0.,0.,2.918457,0.000488,0.052002,0.242188,120,138,144,276
16.154,15:33:38.154,-9.602539,0.398438,-0.161133,-0.013672,0.04248,0.044678,0.,0.,0.,2.918701,0.000732,0.052246,0.242188,120,138,144,276
16.254,15:33:38.254,-9.521484,0.916992,0.12793,-0.026367,-0.006348,-0.051025,0.,0.,0.,2.918701,0.000244,0.052002,0.242188,120,138,144,276
16.354,15:33:38.354,-10.114258,-0.227539,0.393555,-0.006348,-0.029785,0.,0.,0.,0.,2.918945,0.000244,0.051514,0.242188,124,138,144,277
16.454,15:33:38.454,-9.381836,-0.746094,0.250977,-0.029785,0.123291,-0.067871,0.,0.,0.,2.919434,0.000488,0.051758,0.242188,128,140,144,277
16.554,15:33:38.554,-10.201172,0.34668,1.115234,-0.025391,0.038086,0.041504,0.,0.,0.,2.919678,0.000488,0.052002,0.242188,127,140,144,278
16.654,15:33:38.654,-8.90332,-0.24707,-1.310547,-0.003174,0.008301,0.009521,0.,0.,0.,2.919678,0.000488,0.052246,0.242188,127,140,144,278
16.754,15:33:38.754,-9.917969,0.822266,0.303711,-0.022217,0.012695,-0.029785,0.,0.,0.,2.919922,0.000732,0.052002,0.242188,125,141,144,278
16.854,15:33:38.854,-9.640625,0.598633,0.954102,-0.034912,0.070068,-0.015869,0.,0.,0.,2.920166,0.000244,0.050049,0.242188,125,147,144,278
16.954,15:33:38.954,-10.,0.094727,0.023438,-0.027588,-0.07959,-0.003174,0.,0.,0.,2.920654,0.000244,0.049316,0.242188,126,145,144,278
17.054,15:33:39.054,-9.444336,-0.204102,-0.773438,-0.026367,0.,-0.025391,0.,0.,0.,2.920898,0.000488,0.049561,0.242188,127,140,144,278
17.154,15:33:39.154,-9.540039,-0.255859,0.227539,-0.02002,0.098877,-0.016846,0.,0.,0.,2.921143,0.000488,0.049561,0.242188,123,140,144,278
17.254,15:33:39.254,-9.961914,0.213867,0.421875,-0.023193,0.057373,-0.030762,0.,0.,0.,2.921143,0.000244,0.049561,0.242188,121,142,144,278
17.354,15:33:39.354,-9.578125,-0.293945,-0.237305,-0.025391,-0.043457,0.018066,0.,0.,0.,2.921631,0.000977,0.049316,0.242188,121,138,144,278
17.454,15:33:39.454,-9.578125,-0.293945,-0.237305,-0.025391,-0.043457,0.018066,0.,0.,0.,2.921631,0.000977,0.049316,0.242188,121,138,144,278
17.554,15:33:39.554,-9.793945,-0.693359,-0.759766,-0.036133,0.052979,-0.003174,0.,0.,0.,2.921875,0.000488,0.049561,0.242188,121,139,144,279
17.654,15:33:39.654,-9.726562,0.003906,0.075195,-0.038086,0.089355,-0.066895,0.,0.,0.,2.922119,0.000244,0.049561,0.242188,121,141,144,163
17.754,15:33:39.754,-9.894531,0.503906,0.350586,-0.040283,0.043457,-0.039307,0.,0.,0.,2.922363,0.000488,0.049072,0.242188,120,144,144,124
17.854,15:33:39.854,-9.832031,0.051758,0.711914,-0.038086,-0.055176,0.02124,0.,0.,0.,2.922607,0.001709,0.049072,0.242188,120,150,144,239
17.954,15:33:39.954,-9.373047,-0.469727,-0.056641,-0.028564,-0.070068,0.052002,0.,0.,0.,2.922607,0.000732,0.049561,0.242188,123,146,144,278
18.054,15:33:40.054,-9.917969,0.40332,0.702148,-0.031738,0.063721,-0.060547,0.,0.,0.,2.92334,0.000488,0.049316,0.242188,124,141,144,278
18.154,15:33:40.154,-9.473633,0.555664,0.925781,-0.040283,0.009521,-0.047852,0.,0.,0.,2.923584,0.001221,0.048828,0.242188,124,140,145,278
18.254,15:33:40.254,-8.999023,-0.46582,-0.170898,-0.028564,-0.04248,-0.000977,0.,0.,0.,2.923828,0.000977,0.048828,0.242188,123,140,145,278
18.354,15:33:40.354,-9.635742,-0.560547,-0.935547,-0.025391,0.000977,0.013672,0.,0.,0.,2.924072,0.000732,0.049316,0.242188,120,144,145,278
18.454,15:33:40.454,-10.411133,-0.18457,-0.260742,-0.02002,0.057373,-0.006348,0.,0.,0.,2.924072,0.000244,0.049316,0.242188,120,152,145,278
18.554,15:33:40.554,-10.411133,-0.18457,-0.260742,-0.02002,0.057373,-0.006348,0.,0.,0.,2.924072,0.000244,0.049316,0.242188,120,152,145,278
18.654,15:33:40.654,-9.678711,0.802734,0.702148,-0.043457,0.04248,-0.046631,0.,0.,0.,2.924316,0.000488,0.049316,0.242188,120,146,145,278
18.754,15:33:40.754,-9.678711,0.802734,0.702148,-0.043457,0.04248,-0.046631,0.,0.,0.,2.924316,0.000488,0.049316,0.242188,120,146,145,278
18.854,15:33:40.854,-9.444336,0.351562,0.96875,-0.031738,-0.003174,-0.000977,0.,0.,0.,2.924561,0.000488,0.049072,0.242188,121,143,145,278
18.954,15:33:40.954,-9.200195,-0.512695,-0.204102,-0.029785,-0.030762,-0.027588,0.,0.,0.,2.924805,0.000488,0.049072,0.242188,121,140,145,278
19.054,15:33:41.054,-9.904297,0.237305,-0.246094,-0.032959,0.092529,-0.028564,0.,0.,0.,2.925049,0.001221,0.049316,0.242188,120,137,146,278
19.154,15:33:41.154,-9.904297,0.237305,-0.246094,-0.032959,0.092529,-0.028564,0.,0.,0.,2.925049,0.001221,0.049316,0.242188,120,137,146,278
19.254,15:33:41.254,-9.726562,0.489258,0.982422,-0.027588,0.073242,0.013672,0.,0.,0.,2.925293,0.000977,0.048828,0.242188,121,136,146,278
19.354,15:33:41.354,-9.708008,0.089844,0.740234,-0.048828,-0.043457,-0.025391,0.,0.,0.,2.925293,0.000977,0.048584,0.242188,124,137,147,279
19.454,15:33:41.454,-9.396484,-0.451172,-0.592773,-0.044678,-0.038086,-0.009521,0.,0.,0.,2.925781,0.001465,0.048584,0.242188,123,138,147,279
19.554,15:33:41.554,-9.089844,-0.417969,-0.066406,-0.028564,0.084961,0.001953,0.,0.,0.,2.926025,0.001221,0.048828,0.242188,120,136,147,279
19.654,15:33:41.654,-9.927734,0.351562,0.360352,-0.014893,0.083984,0.044678,0.,0.,0.,2.926025,0.000488,0.048828,0.242188,122,135,147,279
19.754,15:33:41.754,-10.018555,0.617188,0.99707,-0.028564,-0.012695,0.011475,0.,0.,0.,2.92627,0.000732,0.048584,0.242188,126,137,147,202
19.854,15:33:41.854,-9.587891,0.142578,-0.388672,-0.038086,-0.072266,0.024414,0.,0.,0.,2.926514,0.000488,0.04834,0.242188,126,139,146,87
19.954,15:33:41.954,-9.439453,-0.341797,-0.75,-0.032959,-0.014893,-0.032959,0.,0.,0.,2.926758,0.000488,0.048828,0.242188,127,137,146,163
20.054,15:33:42.054,-9.583008,0.208984,0.740234,-0.023193,0.045654,-0.038086,0.,0.,0.,2.92749,0.000732,0.048828,0.242188,121,137,147,277
20.154,15:33:42.154,-9.583008,0.208984,0.740234,-0.023193,0.045654,-0.038086,0.,0.,0.,2.92749,0.000732,0.048828,0.242188,121,137,147,277
20.254,15:33:42.254,-10.110352,-0.370117,-0.645508,-0.030762,-0.077637,0.009521,0.,0.,0.,2.927734,0.000488,0.048584,0.242188,127,137,146,201
20.354,15:33:42.354,-9.698242,-0.175781,-0.72168,-0.041504,-0.003174,-0.057373,0.,0.,0.,2.927979,0.000732,0.048828,0.242188,127,137,146,86
20.454,15:33:42.454,-9.243164,0.061523,0.958984,-0.030762,0.084961,-0.041504,0.,0.,0.,2.927979,0.000732,0.048828,0.242188,128,137,145,162
20.554,15:33:42.554,-9.995117,-0.46582,0.199219,-0.027588,-0.05835,0.010498,0.,0.,0.,2.928711,0.000732,0.048828,0.242188,128,141,145,278
20.654,15:33:42.654,-9.995117,-0.46582,0.199219,-0.027588,-0.05835,0.010498,0.,0.,0.,2.928711,0.000732,0.048828,0.242188,128,141,145,278
20.754,15:33:42.754,-9.770508,-0.232422,-1.244141,-0.025391,-0.015869,0.006348,0.,0.,0.,2.928955,0.001221,0.048828,0.242188,124,141,145,278
20.854,15:33:42.854,-9.889648,0.170898,0.293945,-0.019043,0.091309,-0.003174,0.,0.,0.,2.929199,0.000732,0.048584,0.242188,120,138,146,278
20.954,15:33:42.954,-9.789062,0.446289,1.044922,-0.044678,0.022217,-0.038086,0.,0.,0.,2.929199,0.000732,0.04834,0.242188,123,136,146,278
21.054,15:33:43.054,-9.693359,0.075195,0.289062,-0.027588,-0.076416,-0.030762,0.,0.,0.,2.929443,0.000732,0.048096,0.242188,129,135,147,278
21.154,15:33:43.154,-9.425781,-0.489258,-0.873047,-0.028564,-0.009521,-0.023193,0.,0.,0.,2.929688,0.000977,0.048584,0.242188,124,135,147,278
21.254,15:33:43.254,-9.224609,-0.260742,0.726562,-0.006348,0.106201,-0.023193,0.,0.,0.,2.929932,0.000732,0.048584,0.242188,122,136,146,278
21.354,15:33:43.354,-10.119141,0.408203,0.835938,-0.034912,0.010498,-0.037109,0.,0.,0.,2.930176,0.000732,0.048584,0.242188,122,137,146,278
21.454,15:33:43.454,-9.746094,0.285156,-0.232422,-0.019043,-0.070068,0.003174,0.,0.,0.,2.93042,0.000488,0.048584,0.242188,122,140,146,278
21.554,15:33:43.554,-9.808594,-0.270508,-0.735352,-0.027588,-0.041504,-0.02124,0.,0.,0.,2.93042,0.001221,0.048828,0.242188,121,140,146,279
21.654,15:33:43.654,-9.564453,-0.146484,0.099609,-0.029785,0.048828,-0.070068,0.,0.,0.,2.930664,0.000977,0.048828,0.242188,121,140,145,278
21.754,15:33:43.754,-9.013672,-0.132812,0.754883,-0.030762,0.080811,-0.064697,0.,0.,0.,2.930908,0.001709,0.04834,0.242188,120,139,145,278
21.854,15:33:43.854,-9.770508,0.175781,1.182617,-0.032959,0.023193,0.039307,0.,0.,0.,2.931152,0.001221,0.048584,0.242188,120,136,145,278
21.954,15:33:43.954,-9.990234,-0.151367,-0.826172,-0.02124,-0.052002,0.010498,0.,0.,0.,2.931641,0.,0.048584,0.242188,119,136,145,278
22.054,15:33:44.054,-9.128906,0.12793,0.037109,-0.023193,0.052979,-0.038086,0.,0.,0.,2.931641,0.000732,0.048828,0.242188,119,136,146,278
22.154,15:33:44.154,-9.128906,0.12793,0.037109,-0.023193,0.052979,-0.038086,0.,0.,0.,2.931641,0.000732,0.048828,0.242188,119,136,146,278
22.254,15:33:44.254,-9.569336,-0.033203,1.158203,-0.026367,0.056396,-0.02124,0.,0.,0.,2.931885,0.000977,0.048584,0.242188,120,136,146,278
22.354,15:33:44.354,-9.932617,0.123047,0.393555,-0.040283,0.005127,-0.039307,0.,0.,0.,2.932129,0.001221,0.048584,0.242188,124,136,146,278
22.454,15:33:44.454,-9.348633,-0.080078,-0.408203,-0.04248,0.038086,0.04248,0.,0.,0.,2.932129,0.001221,0.048584,0.242188,128,136,146,278
22.554,15:33:44.554,-9.506836,-0.280273,-0.555664,-0.018066,0.074463,0.063721,0.,0.,0.,2.932129,0.000732,0.048584,0.242188,128,137,148,278
22.654,15:33:44.654,-10.349609,0.,0.436523,-0.016846,0.018066,-0.013672,0.,0.,0.,2.932129,0.000244,0.048096,0.242188,128,140,147,278
22.754,15:33:44.754,-10.478516,0.512695,-0.084961,-0.028564,-0.022217,-0.063721,0.,0.,0.,2.932373,0.000732,0.048096,0.242188,128,139,147,278
22.854,15:33:44.854,-9.889648,0.151367,0.132812,0.018066,0.401123,-0.077637,0.,0.,0.,2.933105,0.,0.055176,0.242188,126,138,146,281
22.954,15:33:44.954,-10.287109,0.033203,0.455078,-0.062744,1.859131,-0.135986,0.,0.,0.,2.933594,-0.012207,0.155518,0.238281,122,137,146,281
23.054,15:33:45.054,-10.287109,0.033203,0.455078,-0.062744,1.859131,-0.135986,0.,0.,0.,2.933594,-0.012207,0.155518,0.238281,122,137,146,281
23.154,15:33:45.154,-12.479492,-0.118164,-0.070312,0.040283,-2.080322,0.491455,0.,0.,0.,2.947266,-0.008545,0.057617,0.21875,122,137,146,280
23.254,15:33:45.254,-9.257812,0.532227,-0.859375,0.525635,-0.252197,0.013672,0.,0.,0.,3.089111,0.010742,0.030029,0.203125,123,149,146,130
23.354,15:33:45.354,-9.257812,0.532227,-0.859375,0.525635,-0.252197,0.013672,0.,0.,0.,3.089111,0.010742,0.030029,0.203125,123,149,146,130
23.454,15:33:45.454,-8.870117,0.631836,0.070312,0.646973,-0.003174,0.089355,0.,0.,0.,-3.131836,0.008057,0.042969,0.253906,121,140,147,94
23.554,15:33:45.554,-8.870117,0.631836,0.070312,0.646973,-0.003174,0.089355,0.,0.,0.,-3.131836,0.008057,0.042969,0.253906,121,140,147,94
23.654,15:33:45.654,-7.113281,0.436523,0.089844,0.762939,1.270508,-0.083008,0.,0.,0.,-3.060059,0.005615,0.105469,0.335938,119,135,147,97
23.754,15:33:45.754,-7.285156,-0.018555,0.02832,0.837402,0.198975,-0.132812,0.,0.,0.,-2.976562,0.014404,0.142578,0.382812,115,134,148,125
23.854,15:33:45.854,-7.405273,0.289062,1.144531,0.934326,-0.618164,-0.099854,0.,0.,0.,-2.883057,0.020508,0.161865,0.421875,114,134,147,205
23.954,15:33:45.954,-7.405273,0.289062,1.144531,0.934326,-0.618164,-0.099854,0.,0.,0.,-2.883057,0.020508,0.161865,0.421875,114,134,147,205
24.054,15:33:46.054,-8.573242,-0.907227,0.041992,0.067871,-1.22583,-0.083984,0.,0.,0.,-2.855957,0.004639,0.042725,0.402344,113,150,104,187
24.154,15:33:46.154,-9.224609,1.026367,0.459961,0.028564,-0.25,0.032959,0.,0.,0.,-2.844727,-0.000977,-0.033936,0.386719,113,150,76,174
24.254,15:33:46.254,-10.986328,-1.535156,0.541016,-0.202148,-0.027588,3.392578,0.,0.,0.,-2.83252,-0.064941,0.008057,0.269531,102,153,125,220
24.354,15:33:46.354,-11.191406,1.558594,0.037109,0.038086,-0.078613,1.900635,0.,0.,0.,-2.825195,0.058105,0.011963,0.210938,98,103,127,202
24.454,15:33:46.454,-11.623047,0.436523,-0.008789,0.114746,-0.174316,-0.462891,0.,0.,0.,-2.816895,0.067383,0.00708,0.210938,96,71,137,175
24.554,15:33:46.554,-11.623047,0.436523,-0.008789,0.114746,-0.174316,-0.462891,0.,0.,0.,-2.816895,0.067383,0.00708,0.210938,96,71,137,175
24.654,15:33:46.654,-10.081055,-0.293945,-0.702148,0.065918,0.00415,-0.761963,0.,0.,0.,-2.808838,0.06543,-0.001465,0.210938,94,117,144,172
24.754,15:33:46.754,-10.081055,-0.293945,-0.702148,0.065918,0.00415,-0.761963,0.,0.,0.,-2.808838,0.06543,-0.001465,0.210938,94,117,144,172
24.854,15:33:46.854,-9.884766,-0.12793,0.041992,0.04248,0.09668,0.272217,0.,0.,0.,-2.800049,0.060791,-0.005859,0.207031,94,148,144,169
24.954,15:33:46.954,-9.884766,-0.12793,0.041992,0.04248,0.09668,0.272217,0.,0.,0.,-2.800049,0.060791,-0.005859,0.207031,94,148,144,169
25.054,15:33:47.054,-9.089844,0.855469,0.754883,0.072266,-0.047852,0.319092,0.,0.,0.,-2.791504,0.091309,0.000732,0.25,95,148,145,177
25.154,15:33:47.154,-8.726562,0.161133,0.62207,0.065918,0.081787,-0.214844,0.,0.,0.,-2.776367,-0.011963,0.021484,0.304688,91,150,149,186
25.254,15:33:47.254,-9.683594,0.797852,0.764648,-0.012695,0.102051,0.087158,0.,0.,0.,-2.760498,-0.013672,0.025635,0.292969,93,154,115,157
25.354,15:33:47.354,-9.683594,0.797852,0.764648,-0.012695,0.102051,0.087158,0.,0.,0.,-2.760498,-0.013672,0.025635,0.292969,93,154,115,157
25.454,15:33:47.454,-10.851562,0.413086,0.574219,-0.005127,0.126465,-0.296875,0.,0.,0.,-2.741211,-0.05249,0.070557,0.203125,92,168,107,139
25.554,15:33:47.554,-10.851562,0.413086,0.574219,-0.005127,0.126465,-0.296875,0.,0.,0.,-2.741211,-0.05249,0.070557,0.203125,92,168,107,139
25.654,15:33:47.654,-10.851562,0.413086,0.574219,-0.005127,0.126465,-0.296875,0.,0.,0.,-2.741211,-0.05249,0.070557,0.203125,92,168,107,139
25.754,15:33:47.754,-8.276367,-0.831055,-0.023438,-0.008301,-1.027832,-1.148193,0.,0.,0.,-2.714111,0.030518,0.134766,0.261719,101,197,109,112
25.854,15:33:47.854,-9.013672,-0.099609,-0.626953,0.007324,-0.11377,-0.128662,0.,0.,0.,-2.707031,-0.040283,0.043945,0.285156,101,200,110,116
25.954,15:33:47.954,-9.717773,-0.199219,0.161133,-0.030762,-0.111572,1.050293,0.,0.,0.,-2.700928,-0.045166,0.012695,0.296875,113,198,105,120
26.054,15:33:48.054,-9.683594,0.835938,0.977539,0.030762,-0.116943,0.123291,0.,0.,0.,-2.697021,0.003418,0.022949,0.292969,122,191,103,116
26.154,15:33:48.154,-9.583008,-0.617188,0.431641,0.052002,1.192871,-0.719238,0.,0.,0.,-2.690186,0.004883,0.071045,0.273438,113,192,100,114
26.254,15:33:48.254,-9.583008,-0.617188,0.431641,0.052002,1.192871,-0.719238,0.,0.,0.,-2.690186,0.004883,0.071045,0.273438,113,192,100,114
26.354,15:33:48.354,-10.995117,-1.463867,-0.242188,-0.010498,0.272217,-0.159424,0.,0.,0.,-2.682617,-0.013916,0.118164,0.242188,107,202,99,108
26.454,15:33:48.454,-10.995117,-1.463867,-0.242188,-0.010498,0.272217,-0.159424,0.,0.,0.,-2.682617,-0.013916,0.118164,0.242188,107,202,99,108
26.554,15:33:48.554,-10.296875,0.237305,-0.327148,-0.015869,-1.169434,0.016846,0.,0.,0.,-2.675537,-0.03125,0.076416,0.222656,122,224,101,105
26.654,15:33:48.654,-10.296875,0.237305,-0.327148,-0.015869,-1.169434,0.016846,0.,0.,0.,-2.675537,-0.03125,0.076416,0.222656,122,224,101,105
26.754,15:33:48.754,-10.196289,-0.189453,-0.683594,0.001953,-0.322266,0.016846,0.,0.,0.,-2.669678,-0.0354,0.031982,0.210938,133,253,101,100
26.854,15:33:48.854,-10.196289,-0.189453,-0.683594,0.001953,-0.322266,0.016846,0.,0.,0.,-2.669678,-0.0354,0.031982,0.210938,133,253,101,100
26.954,15:33:48.954,-10.875977,0.251953,0.635742,0.076416,1.01416,0.138184,0.,0.,0.,-2.663574,-0.030029,0.021973,0.214844,133,254,101,98
27.054,15:33:49.054,-9.607422,-0.831055,-0.275391,0.032959,0.282959,0.098877,0.,0.,0.,-2.656006,-0.009033,0.133545,0.230469,133,257,99,96
27.154,15:33:49.154,-9.305664,-0.270508,0.768555,0.040283,0.062744,0.056396,0.,0.,0.,-2.647949,-0.004639,0.16626,0.257812,124,257,96,95
27.254,15:33:49.254,-8.587891,1.720703,-0.094727,0.049805,0.063721,-0.111572,0.,0.,0.,-2.639893,-0.005859,0.136475,0.277344,118,257,97,96
27.354,15:33:49.354,-8.472656,1.145508,0.303711,0.033936,-0.53418,-0.27124,0.,0.,0.,-2.633057,-0.009766,0.118164,0.289062,155,236,100,98
27.454,15:33:49.454,-8.472656,1.145508,0.303711,0.033936,-0.53418,-0.27124,0.,0.,0.,-2.633057,-0.009766,0.118164,0.289062,155,236,100,98
27.554,15:33:49.554,-8.472656,1.145508,0.303711,0.033936,-0.53418,-0.27124,0.,0.,0.,-2.633057,-0.009766,0.118164,0.289062,155,236,100,98
27.654,15:33:49.654,-9.583008,0.179688,-0.260742,0.012695,-0.166016,0.261719,0.,0.,0.,-2.619385,-0.01416,0.071045,0.296875,143,205,99,101
27.754,15:33:49.754,-9.425781,0.626953,0.250977,0.040283,-0.130859,0.019043,0.,0.,0.,-2.613037,-0.00415,0.060303,0.285156,117,205,97,107
27.854,15:33:49.854,-9.947266,0.413086,0.526367,0.043457,-0.268066,-0.076416,0.,0.,0.,-2.606445,-0.003418,0.041992,0.257812,111,204,95,109
27.954,15:33:49.954,-10.181641,0.575195,1.040039,0.008301,-0.083008,-0.070068,0.,0.,0.,-2.600098,-0.007324,0.028809,0.234375,109,204,94,110
28.054,15:33:50.054,-10.181641,0.575195,1.040039,0.008301,-0.083008,-0.070068,0.,0.,0.,-2.600098,-0.007324,0.028809,0.234375,109,204,94,110
28.154,15:33:50.154,-9.841797,1.568359,1.249023,0.087158,-0.074463,-0.092529,0.,0.,0.,-2.586914,-0.020264,-0.015625,0.214844,104,203,91,116
28.254,15:33:50.254,-10.105469,-0.774414,-0.199219,0.001953,-0.217041,0.,0.,0.,0.,-2.581787,-0.025635,-0.030029,0.230469,95,201,89,119
28.354,15:33:50.354,-9.765625,-0.850586,-0.327148,0.05957,0.000977,-0.012695,0.,0.,0.,-2.576416,-0.027588,-0.038818,0.253906,94,200,87,124
28.454,15:33:50.454,-9.162109,-0.983398,-0.246094,-0.02124,-0.130859,-0.091309,0.,0.,0.,-2.572021,-0.025879,-0.044922,0.277344,99,193,86,126
28.554,15:33:50.554,-9.051758,0.827148,0.008789,0.051025,0.000977,-0.060547,0.,0.,0.,-2.568604,-0.03125,-0.053711,0.292969,103,183,84,127
28.654,15:33:50.654,-9.793945,0.422852,-0.166016,0.036133,0.904541,-0.11377,0.,0.,0.,-2.564697,-0.031738,-0.021973,0.296875,109,184,84,128
28.754,15:33:50.754,-8.75,0.545898,-0.217773,0.02124,0.091309,0.093506,0.,0.,0.,-2.560059,-0.029785,0.021973,0.289062,115,185,85,128
28.854,15:33:50.854,-10.047852,0.194336,0.864258,0.071289,0.481934,0.154297,0.,0.,0.,-2.55542,-0.028809,0.067627,0.273438,124,193,86,128
28.954,15:33:50.954,-10.450195,0.489258,0.108398,0.036133,0.218994,-0.028564,0.,0.,0.,-2.549072,-0.020264,0.088379,0.246094,139,199,88,128
29.054,15:33:51.054,-10.732422,-1.069336,-0.379883,-0.028564,0.106201,0.111572,0.,0.,0.,-2.541748,-0.006104,0.10083,0.226562,176,238,90,129
29.154,15:33:51.154,-11.09082,-0.34668,0.222656,0.057373,0.061523,0.066895,0.,0.,0.,-2.535156,0.003418,0.101318,0.214844,189,264,94,129
29.254,15:33:51.254,-10.085938,-0.113281,0.061523,-0.02002,-0.244629,0.138184,0.,0.,0.,-2.527588,0.008301,0.09668,0.21875,190,264,97,129
29.354,15:33:51.354,-9.683594,-0.532227,-0.426758,0.032959,-0.110596,0.,0.,0.,0.,-2.520508,0.019043,0.076172,0.238281,154,264,98,129
29.454,15:33:51.454,-9.162109,0.161133,-0.77832,0.019043,-0.107422,0.084961,0.,0.,0.,-2.514404,0.026367,0.063965,0.265625,100,243,100,131
29.554,15:33:51.554,-9.081055,0.626953,-0.469727,0.048828,0.015869,0.041504,0.,0.,0.,-2.507812,0.033447,0.053467,0.289062,112,229,101,134
29.654,15:33:51.654,-8.841797,0.636719,0.783203,0.067871,-0.658691,-0.094482,0.,0.,0.,-2.501709,0.032227,0.028076,0.296875,131,227,103,133
29.754,15:33:51.754,-9.089844,-0.427734,0.550781,0.103027,-0.11377,-0.077637,0.,0.,0.,-2.494629,0.0271,-0.004883,0.304688,136,226,104,133
29.854,15:33:51.854,-9.55957,-0.998047,-0.569336,0.048828,1.057617,-0.171143,0.,0.,0.,-2.488525,0.02124,0.020752,0.300781,145,224,105,133
29.954,15:33:51.954,-10.287109,0.146484,-0.683594,0.04248,0.11792,0.008301,0.,0.,0.,-2.480469,0.016357,0.065186,0.289062,146,224,106,135
30.054,15:33:52.054,-9.803711,0.56543,0.50293,0.054199,-0.280762,0.032959,0.,0.,0.,-2.473389,0.014404,0.076416,0.269531,148,224,108,137
30.154,15:33:52.154,-9.803711,0.56543,0.50293,0.054199,-0.280762,0.032959,0.,0.,0.,-2.473389,0.014404,0.076416,0.269531,148,224,108,137
30.254,15:33:52.254,-10.516602,1.092773,0.413086,0.072266,0.062744,-0.070068,0.,0.,0.,-2.460938,0.015869,0.061279,0.242188,190,227,108,137
30.354,15:33:52.354,-10.516602,1.092773,0.413086,0.072266,0.062744,-0.070068,0.,0.,0.,-2.460938,0.015869,0.061279,0.242188,190,227,108,137
30.454,15:33:52.454,-9.003906,1.359375,-0.118164,0.067871,-0.018066,-0.060547,0.,0.,0.,-2.427734,0.006348,0.050293,0.296875,173,232,105,131
30.554,15:33:52.554,-9.003906,1.359375,-0.118164,0.067871,-0.018066,-0.060547,0.,0.,0.,-2.427734,0.006348,0.050293,0.296875,173,232,105,131
30.654,15:33:52.654,-9.703125,-0.146484,-0.255859,0.032959,0.039307,-0.240479,0.,0.,0.,-2.421387,-0.009521,0.048584,0.304688,137,233,104,127
30.754,15:33:52.754,-9.703125,-0.146484,-0.255859,0.032959,0.039307,-0.240479,0.,0.,0.,-2.421387,-0.009521,0.048584,0.304688,137,233,104,127
30.854,15:33:52.854,-9.492188,0.308594,0.498047,0.029785,0.066895,0.003174,0.,0.,0.,-2.409424,-0.026855,0.05127,0.304688,115,237,100,122
30.954,15:33:52.954,-9.894531,-0.285156,-0.089844,0.066895,0.048828,0.060547,0.,0.,0.,-2.402344,-0.028564,0.051025,0.292969,124,238,98,122
31.054,15:33:53.054,-9.894531,-0.285156,-0.089844,0.066895,0.048828,0.060547,0.,0.,0.,-2.402344,-0.028564,0.051025,0.292969,124,238,98,122
31.154,15:33:53.154,-9.917969,-0.194336,0.250977,0.040283,0.024414,-0.054199,0.,0.,0.,-2.39502,-0.029541,0.050049,0.28125,131,240,97,124
31.254,15:33:53.254,-9.917969,-0.194336,0.250977,0.040283,0.024414,-0.054199,0.,0.,0.,-2.39502,-0.029541,0.050049,0.28125,131,240,97,124
31.354,15:33:53.354,-10.057617,0.527344,0.379883,0.048828,0.033936,-0.077637,0.,0.,0.,-2.38916,-0.027344,0.050537,0.273438,125,242,94,126
31.454,15:33:53.454,-10.387695,-0.759766,-0.640625,0.000977,0.011475,-0.046631,0.,0.,0.,-2.381836,-0.028564,0.050781,0.261719,122,245,93,120
31.554,15:33:53.554,-10.755859,-0.365234,-0.40332,0.006348,-0.019043,0.04248,0.,0.,0.,-2.376465,-0.032471,0.051758,0.261719,166,246,94,116
31.654,15:33:53.654,-9.789062,-1.121094,-0.289062,0.05957,0.160645,0.048828,0.,0.,0.,-2.369873,-0.031006,0.056641,0.273438,196,247,94,114
31.754,15:33:53.754,-9.62207,0.779297,0.365234,0.041504,0.092529,-0.037109,0.,0.,0.,-2.362549,-0.023193,0.066895,0.285156,160,248,91,114
31.854,15:33:53.854,-9.320312,-1.558594,-0.484375,0.016846,-0.00415,-0.015869,0.,0.,0.,-2.356201,-0.018311,0.068848,0.296875,137,248,91,112
31.954,15:33:53.954,-9.439453,0.194336,-0.398438,0.029785,-0.02002,0.001953,0.,0.,0.,-2.334473,-0.014404,0.065918,0.320312,154,256,91,111
32.054,15:33:54.054,-9.081055,0.460938,0.104492,0.060547,-0.006348,-0.013672,0.,0.,0.,-2.327148,-0.01123,0.063232,0.320312,160,269,90,112
32.154,15:33:54.154,-10.229492,-0.341797,-0.451172,0.024414,0.038086,-0.061523,0.,0.,0.,-2.31958,-0.009033,0.061523,0.320312,152,223,90,113
32.254,15:33:54.254,-9.741211,0.104492,-0.507812,0.031738,-0.134033,0.04248,0.,0.,0.,-2.313477,-0.009277,0.057617,0.320312,147,155,90,113
32.354,15:33:54.354,-9.836914,0.033203,0.275391,0.049805,-0.05957,-0.006348,0.,0.,0.,-2.307129,-0.012695,0.04834,0.316406,163,155,90,113
32.454,15:33:54.454,-9.506836,-0.336914,-0.265625,0.041504,-0.007324,-0.032959,0.,0.,0.,-2.30127,-0.012939,0.044678,0.3125,170,155,90,114
32.554,15:33:54.554,-9.506836,-0.336914,-0.265625,0.041504,-0.007324,-0.032959,0.,0.,0.,-2.30127,-0.012939,0.044678,0.3125,170,155,90,114
32.654,15:33:54.654,-9.348633,0.113281,0.431641,0.014893,0.018066,0.039307,0.,0.,0.,-2.294922,-0.01123,0.044434,0.320312,160,155,91,117
32.754,15:33:54.754,-9.348633,0.113281,0.431641,0.014893,0.018066,0.039307,0.,0.,0.,-2.294922,-0.01123,0.044434,0.320312,160,155,91,117
32.854,15:33:54.854,-9.506836,0.,-0.28418,0.052979,-0.128662,0.008301,0.,0.,0.,-2.288818,-0.010498,0.039795,0.324219,157,155,91,122
32.954,15:33:54.954,-8.927734,0.474609,0.094727,0.074463,-0.044678,-0.032959,0.,0.,0.,-2.281006,-0.010986,0.035156,0.332031,157,190,92,123
33.054,15:33:55.054,-9.257812,0.023438,-0.849609,0.04248,-0.05835,-0.000977,0.,0.,0.,-2.272949,-0.007812,0.02832,0.339844,159,244,92,121
33.154,15:33:55.154,-9.669922,-0.265625,0.327148,0.049805,0.012695,0.008301,0.,0.,0.,-2.266357,-0.006104,0.023438,0.34375,163,213,93,121
33.254,15:33:55.254,-9.755859,0.061523,0.426758,0.049805,0.081787,0.003174,0.,0.,0.,-2.260742,-0.006836,0.028809,0.34375,163,167,92,122
33.354,15:33:55.354,-10.09082,-0.779297,0.194336,0.04248,0.076416,-0.015869,0.,0.,0.,-2.254639,-0.00293,0.0354,0.34375,160,167,91,124
33.454,15:33:55.454,-9.574219,-0.232422,0.592773,0.071289,0.072266,-0.007324,0.,0.,0.,-2.247559,-0.002441,0.038818,0.34375,159,167,91,130
33.554,15:33:55.554,-9.78418,0.34668,0.464844,0.061523,0.052002,-0.003174,0.,0.,0.,-2.240479,-0.009033,0.042969,0.34375,159,212,92,130
33.654,15:33:55.654,-10.15332,-0.255859,0.151367,0.031738,0.045654,-0.005127,0.,0.,0.,-2.233643,-0.01001,0.04541,0.34375,159,242,92,127
33.754,15:33:55.754,-9.774414,-0.598633,-0.99707,0.064697,0.049805,-0.025391,0.,0.,0.,-2.227783,-0.008789,0.047852,0.34375,159,242,92,125
33.854,15:33:55.854,-10.229492,-0.494141,-0.920898,0.027588,0.046631,0.052002,0.,0.,0.,-2.221436,-0.007812,0.04834,0.34375,159,242,94,124
33.954,15:33:55.954,-9.650391,0.869141,-0.174805,0.039307,-0.006348,-0.02124,0.,0.,0.,-2.214355,-0.004639,0.049805,0.34375,159,242,96,124
34.054,15:33:56.054,-9.612305,-0.588867,0.033203,0.045654,0.013672,0.170166,0.,0.,0.,-2.20752,0.002441,0.05127,0.34375,159,242,97,124
34.154,15:33:56.154,-9.665039,1.135742,0.308594,0.069092,0.026367,0.037109,0.,0.,0.,-2.200439,0.010498,0.051758,0.347656,159,242,99,125
34.254,15:33:56.254,-9.540039,-0.797852,-0.212891,0.030762,0.024414,0.012695,0.,0.,0.,-2.191895,0.014648,0.05249,0.347656,159,242,97,125
34.354,15:33:56.354,-9.526367,1.283203,0.954102,0.0979,0.045654,-0.011475,0.,0.,0.,-2.185059,0.014404,0.053223,0.351562,159,242,97,123
34.454,15:33:56.454,-9.884766,-0.389648,-0.579102,0.062744,0.008301,-0.145752,0.,0.,0.,-2.177246,0.012207,0.052246,0.355469,160,242,97,122
34.554,15:33:56.554,-9.511719,0.033203,0.070312,0.014893,0.029785,-0.0979,0.,0.,0.,-2.170898,-0.001953,0.052734,0.359375,160,242,97,121
34.654,15:33:56.654,-9.866211,0.013672,-0.982422,0.052002,0.000977,-0.061523,0.,0.,0.,-2.164551,-0.007568,0.052979,0.367188,160,242,98,121
34.754,15:33:56.754,-9.257812,0.660156,-0.204102,0.05957,-0.015869,0.027588,0.,0.,0.,-2.158447,-0.008057,0.052979,0.367188,162,242,100,120
34.854,15:33:56.854,-9.894531,0.327148,0.246094,0.078613,-0.02002,0.119141,0.,0.,0.,-2.151367,-0.005127,0.052979,0.367188,162,242,100,120
34.954,15:33:56.954,-9.195312,0.978516,0.451172,0.034912,-0.02002,-0.063721,0.,0.,0.,-2.144775,0.002686,0.053223,0.367188,164,242,100,119
35.054,15:33:57.054,-9.195312,0.978516,0.451172,0.034912,-0.02002,-0.063721,0.,0.,0.,-2.144775,0.002686,0.053223,0.367188,164,242,100,119
35.154,15:33:57.154,-9.673828,-0.132812,0.15625,0.099854,0.018066,-0.039307,0.,0.,0.,-2.130127,-0.000977,0.055908,0.363281,164,242,97,117
35.254,15:33:57.254,-9.665039,-0.237305,-0.764648,0.018066,0.043457,-0.158447,0.,0.,0.,-2.122314,-0.01001,0.062012,0.363281,165,242,97,117
35.354,15:33:57.354,-9.602539,-0.166016,-0.693359,0.025391,0.062744,-0.086182,0.,0.,0.,-2.11499,-0.017334,0.064697,0.363281,167,242,97,116
35.454,15:33:57.454,-9.592773,0.603516,0.398438,0.00415,-0.009521,0.05835,0.,0.,0.,-2.109619,-0.015137,0.064209,0.363281,166,242,97,115
35.554,15:33:57.554,-9.617188,1.05957,0.949219,0.054199,0.007324,-0.009521,0.,0.,0.,-2.095459,-0.010986,0.062012,0.363281,166,242,96,116
35.654,15:33:57.654,-9.617188,1.05957,0.949219,0.054199,0.007324,-0.009521,0.,0.,0.,-2.095459,-0.010986,0.062012,0.363281,166,242,96,116
35.754,15:33:57.754,-9.985352,-0.179688,-0.859375,0.040283,-0.043457,0.02124,0.,0.,0.,-2.0896,-0.007568,0.060303,0.359375,166,242,96,114
35.854,15:33:57.854,-9.798828,0.731445,0.084961,0.056396,0.,0.014893,0.,0.,0.,-2.08252,-0.008789,0.059082,0.363281,165,242,96,113
35.954,15:33:57.954,-10.258789,-0.179688,0.189453,0.070068,0.031738,-0.065918,0.,0.,0.,-2.076172,-0.009521,0.055908,0.363281,165,242,97,113
36.054,15:33:58.054,-9.104492,0.831055,0.421875,0.038086,0.052002,0.05957,0.,0.,0.,-2.069092,-0.006104,0.056152,0.367188,165,216,97,115
36.154,15:33:58.154,-9.717773,-0.18457,0.056641,0.030762,0.045654,-0.016846,0.,0.,0.,-2.060547,-0.002441,0.060547,0.371094,165,140,97,114
36.254,15:33:58.254,-9.879883,0.189453,0.545898,0.046631,-0.073242,-0.048828,0.,0.,0.,-2.053223,-0.000488,0.058105,0.371094,164,115,98,114
36.354,15:33:58.354,-9.655273,-1.102539,0.217773,0.045654,0.013672,-0.039307,0.,0.,0.,-2.045898,-0.001221,0.054199,0.375,164,115,98,114
36.454,15:33:58.454,-9.454102,0.646484,1.386719,0.052002,0.010498,0.057373,0.,0.,0.,-2.040283,0.002441,0.052246,0.375,164,144,97,114
36.554,15:33:58.554,-9.602539,0.712891,0.018555,0.067871,-0.015869,0.084961,0.,0.,0.,-2.032715,0.005615,0.052734,0.375,165,231,97,114
36.654,15:33:58.654,-10.209961,-0.066406,0.,0.057373,-0.045654,-0.080811,0.,0.,0.,-2.026123,0.003418,0.051758,0.375,164,260,97,115
36.754,15:33:58.754,-9.625977,-0.489258,-0.72168,0.018066,-0.029785,-0.026367,0.,0.,0.,-2.019531,-0.006104,0.051758,0.375,164,260,97,116
36.854,15:33:58.854,-9.506836,0.237305,0.383789,0.092529,0.005127,0.030762,0.,0.,0.,-2.011963,-0.010498,0.050781,0.375,162,260,97,117
36.954,15:33:58.954,-9.822266,0.474609,1.020508,0.065918,0.007324,-0.019043,0.,0.,0.,-2.003174,-0.005859,0.048584,0.378906,161,260,96,117
37.054,15:33:59.054,-9.333984,0.845703,-0.484375,0.076416,-0.072266,-0.127686,0.,0.,0.,-1.993652,-0.004883,0.046631,0.378906,159,260,96,118
37.154,15:33:59.154,-9.602539,0.255859,-0.123047,0.094482,-0.033936,-0.005127,0.,0.,0.,-1.985107,-0.01123,0.044189,0.378906,159,260,96,118
37.254,15:33:59.254,-9.200195,0.660156,0.099609,0.048828,0.027588,0.044678,0.,0.,0.,-1.978516,-0.015869,0.043701,0.378906,158,260,96,119
37.354,15:33:59.354,-9.793945,-0.865234,-0.132812,0.033936,0.055176,-0.07959,0.,0.,0.,-1.972168,-0.01123,0.043701,0.378906,158,260,95,119
37.454,15:33:59.454,-9.985352,-1.164062,-1.068359,-0.00415,0.031738,-0.02002,0.,0.,0.,-1.966553,-0.008545,0.044922,0.378906,156,260,95,119
37.554,15:33:59.554,-9.645508,-0.741211,-0.635742,0.,0.006348,0.016846,0.,0.,0.,-1.960938,-0.012451,0.047119,0.382812,155,260,95,119
37.654,15:33:59.654,-9.262695,-0.175781,0.123047,0.063721,0.031738,0.009521,0.,0.,0.,-1.95459,-0.012695,0.04834,0.382812,155,260,95,120
37.754,15:33:59.754,-9.630859,0.755859,-0.099609,0.048828,0.066895,-0.040283,0.,0.,0.,-1.948242,-0.010498,0.052979,0.382812,154,260,94,120
37.854,15:33:59.854,-9.693359,-0.298828,-0.451172,0.066895,0.016846,-0.00415,0.,0.,0.,-1.941895,-0.010742,0.053711,0.382812,153,264,94,120
37.954,15:33:59.954,-9.540039,1.553711,0.816406,0.081787,0.022217,-0.043457,0.,0.,0.,-1.934814,-0.012939,0.053223,0.382812,152,270,94,120
38.054,15:34:0.054,-9.018555,0.631836,-0.413086,0.066895,0.030762,-0.045654,0.,0.,0.,-1.921387,-0.013428,0.057129,0.382812,151,270,94,121
38.154,15:34:0.154,-9.961914,-0.436523,-0.15625,-0.011475,-0.046631,-0.031738,0.,0.,0.,-1.914795,-0.012695,0.059326,0.382812,150,270,94,121
38.254,15:34:0.254,-10.114258,-1.316406,-0.298828,0.016846,0.073242,0.033936,0.,0.,0.,-1.909668,-0.013916,0.062012,0.382812,149,270,94,121
38.354,15:34:0.354,-9.980469,-0.8125,-0.764648,0.025391,0.02002,0.037109,0.,0.,0.,-1.905518,-0.016602,0.061035,0.378906,149,270,95,122
38.454,15:34:0.454,-10.37793,-0.242188,0.564453,-0.000977,-0.007324,-0.044678,0.,0.,0.,-1.901611,-0.014648,0.062012,0.378906,148,270,95,122
38.554,15:34:0.554,-9.544922,-0.479492,0.484375,0.02002,0.073242,-0.039307,0.,0.,0.,-1.898438,-0.009766,0.062744,0.378906,147,177,95,123
38.654,15:34:0.654,-9.544922,-0.479492,0.484375,0.02002,0.073242,-0.039307,0.,0.,0.,-1.898438,-0.009766,0.062744,0.378906,147,177,95,123
38.754,15:34:0.754,-9.703125,-0.222656,-1.101562,0.,0.052002,-0.036133,0.,0.,0.,-1.893066,-0.005859,0.060547,0.378906,146,115,95,124
38.854,15:34:0.854,-9.549805,1.420898,0.436523,0.003174,-0.006348,-0.011475,0.,0.,0.,-1.886719,-0.004639,0.059814,0.382812,145,115,96,125
38.954,15:34:0.954,-9.72168,-1.216797,0.046875,0.016846,0.018066,0.008301,0.,0.,0.,-1.882324,-0.006348,0.060547,0.382812,144,115,96,126
39.054,15:34:1.054,-9.535156,0.222656,-0.046875,0.013672,0.029785,0.008301,0.,0.,0.,-1.866699,-0.001953,0.05957,0.382812,141,225,99,131
39.154,15:34:1.154,-9.970703,-0.613281,0.507812,0.001953,0.073242,0.001953,0.,0.,0.,-1.860352,-0.001465,0.058594,0.382812,139,299,99,134
39.254,15:34:1.254,-9.957031,0.146484,0.350586,0.040283,0.030762,0.087158,0.,0.,0.,-1.855957,0.001221,0.057373,0.378906,136,296,100,136
39.354,15:34:1.354,-9.957031,0.146484,0.350586,0.040283,0.030762,0.087158,0.,0.,0.,-1.855957,0.001221,0.057373,0.378906,136,296,100,136
39.454,15:34:1.454,-9.957031,0.146484,0.350586,0.040283,0.030762,0.087158,0.,0.,0.,-1.855957,0.001221,0.057373,0.378906,136,296,100,136
39.554,15:34:1.554,-10.004883,1.026367,0.869141,0.045654,-0.015869,0.038086,0.,0.,0.,-1.846191,0.003906,0.056641,0.355469,133,294,101,141
39.654,15:34:1.654,-10.004883,1.026367,0.869141,0.045654,-0.015869,0.038086,0.,0.,0.,-1.846191,0.003906,0.056641,0.355469,133,294,101,141
39.754,15:34:1.754,-9.295898,-0.170898,-0.212891,0.02124,0.056396,0.046631,0.,0.,0.,-1.8396,0.002197,0.057861,0.367188,130,294,102,145
39.854,15:34:1.854,-9.841797,-1.125977,-0.597656,0.006348,0.033936,-0.013672,0.,0.,0.,-1.83374,0.002441,0.054199,0.402344,127,293,103,147
39.954,15:34:1.954,-8.779297,-0.356445,-0.217773,0.033936,-0.052002,0.018066,0.,0.,0.,-1.828857,0.00293,0.053467,0.472656,125,293,103,151
40.054,15:34:2.054,-8.779297,-0.356445,-0.217773,0.033936,-0.052002,0.018066,0.,0.,0.,-1.828857,0.00293,0.053467,0.472656,125,293,103,151
40.154,15:34:2.154,-8.649414,1.197266,0.536133,0.045654,0.018066,-0.070068,0.,0.,0.,-1.819092,0.005859,0.047363,0.488281,119,291,104,155
40.254,15:34:2.254,-9.827148,1.667969,0.773438,0.060547,-0.010498,-0.02124,0.,0.,0.,-1.814209,0.009277,0.050537,0.449219,116,289,105,157
40.354,15:34:2.354,-10.750977,-0.013672,-0.174805,-0.003174,0.081787,0.025391,0.,0.,0.,-1.809814,0.008789,0.050781,0.402344,114,252,105,160
40.454,15:34:2.454,-10.750977,-0.013672,-0.174805,-0.003174,0.081787,0.025391,0.,0.,0.,-1.809814,0.008789,0.050781,0.402344,114,252,105,160
40.554,15:34:2.554,-9.836914,0.499023,0.87793,0.09668,-0.028564,0.46167,0.,0.,0.,-1.788818,0.123779,0.007324,0.382812,103,258,106,171
40.654,15:34:2.654,-9.836914,0.499023,0.87793,0.09668,-0.028564,0.46167,0.,0.,0.,-1.788818,0.123779,0.007324,0.382812,103,258,106,171
40.754,15:34:2.754,-9.506836,-1.154297,0.735352,0.090332,-0.049805,-1.199219,0.,0.,0.,-1.781494,0.12915,0.00708,0.390625,100,172,105,173
40.854,15:34:2.854,-9.506836,-1.154297,0.735352,0.090332,-0.049805,-1.199219,0.,0.,0.,-1.781494,0.12915,0.00708,0.390625,100,172,105,173
40.954,15:34:2.954,-9.665039,0.489258,0.413086,0.049805,0.05835,-0.476562,0.,0.,0.,-1.773926,-0.021973,0.005127,0.417969,97,173,103,177
41.054,15:34:3.054,-9.391602,0.717773,0.702148,0.041504,-0.048828,-0.166016,0.,0.,0.,-1.772949,-0.080078,0.005615,0.449219,94,260,102,178
41.154,15:34:3.154,-9.25293,-0.56543,0.693359,0.013672,-0.030762,-0.257324,0.,0.,0.,-1.769775,-0.057617,-0.000488,0.484375,92,289,99,179
41.254,15:34:3.254,-8.573242,-0.15625,-0.066406,-0.001953,-0.039307,0.233887,0.,0.,0.,-1.765869,-0.043457,-0.002197,0.5,91,289,97,131
41.354,15:34:3.354,-8.985352,0.213867,-0.113281,0.043457,0.023193,0.227539,0.,0.,0.,-1.761963,-0.044434,-0.005371,0.503906,90,290,94,99
41.454,15:34:3.454,-9.454102,0.360352,0.854492,0.034912,0.157471,-0.0979,0.,0.,0.,-1.758545,-0.044678,-0.001221,0.5,90,296,92,148
41.554,15:34:3.554,-9.368164,-0.375,-0.583984,0.029785,0.029785,-0.116943,0.,0.,0.,-1.756104,-0.041016,0.006104,0.492188,90,248,91,181
41.654,15:34:3.654,-10.09082,-0.46582,-0.018555,0.00415,0.122314,0.036133,0.,0.,0.,-1.754639,-0.04126,0.016113,0.480469,91,100,89,179
41.754,15:34:3.754,-10.066406,-0.865234,0.484375,-0.00415,0.07959,0.048828,0.,0.,0.,-1.753174,-0.041992,0.022461,0.46875,92,51,86,178
41.854,15:34:3.854,-10.066406,-0.865234,0.484375,-0.00415,0.07959,0.048828,0.,0.,0.,-1.753174,-0.041992,0.022461,0.46875,92,51,86,178
41.954,15:34:3.954,-10.344727,-0.460938,-0.592773,0.071289,0.132812,-1.613281,0.,0.,0.,-1.718018,0.219238,0.036133,0.425781,98,156,81,168
42.054,15:34:4.054,-9.774414,0.275391,0.232422,0.088135,0.138184,-0.735352,0.,0.,0.,-1.707031,0.07373,0.051514,0.425781,102,156,78,168
42.154,15:34:4.154,-9.755859,0.242188,0.973633,0.120117,0.205322,-2.650879,0.,0.,0.,-1.705078,-0.046875,0.055176,0.421875,105,156,74,159
42.254,15:34:4.254,-9.209961,-0.34668,-0.50293,-0.016846,0.062744,-0.603271,0.,0.,0.,-1.704834,-0.212891,0.068848,0.453125,108,156,70,154
42.354,15:34:4.354,-9.277344,0.726562,-0.094727,-0.012695,0.138184,1.104492,0.,0.,0.,-1.708984,-0.247803,0.078125,0.476562,111,156,65,147
42.454,15:34:4.454,-9.291016,-0.189453,-0.199219,0.003174,0.123291,-0.067871,0.,0.,0.,-1.712158,-0.196045,0.08374,0.488281,114,133,59,143
42.554,15:34:4.554,-9.391602,0.379883,0.056641,0.000977,-0.003174,0.060547,0.,0.,0.,-1.71167,-0.143799,0.092041,0.484375,116,99,56,137
42.654,15:34:4.654,-9.391602,0.379883,0.056641,0.000977,-0.003174,0.060547,0.,0.,0.,-1.71167,-0.143799,0.092041,0.484375,116,99,56,137
42.754,15:34:4.754,-9.492188,0.313477,-0.003906,-0.022217,-0.018066,0.344727,0.,0.,0.,-1.709717,-0.123535,0.095703,0.476562,119,168,52,131
42.854,15:34:4.854,-9.96582,0.436523,0.783203,0.02002,0.009521,0.355225,0.,0.,0.,-1.706543,-0.111572,0.094482,0.464844,121,273,52,128
42.954,15:34:4.954,-10.373047,1.021484,0.289062,0.038086,0.045654,0.025391,0.,0.,0.,-1.703125,-0.100098,0.092285,0.453125,124,273,52,126
43.054,15:34:5.054,-9.411133,0.189453,0.166016,0.008301,-0.087158,0.089355,0.,0.,0.,-1.697998,-0.085938,0.087402,0.441406,127,273,54,125
43.154,15:34:5.154,-9.411133,0.189453,0.166016,0.008301,-0.087158,0.089355,0.,0.,0.,-1.697998,-0.085938,0.087402,0.441406,127,273,54,125
43.254,15:34:5.254,-9.731445,0.175781,0.084961,0.02002,-0.161621,0.3479,0.,0.,0.,-1.6875,-0.035645,0.066406,0.429688,135,271,60,126
43.354,15:34:5.354,-10.105469,-0.280273,0.592773,0.008301,-0.007324,0.153076,0.,0.,0.,-1.682861,-0.012695,0.054199,0.425781,141,265,66,127
43.454,15:34:5.454,-10.066406,0.003906,0.28418,-0.044678,0.010498,0.315918,0.,0.,0.,-1.681152,0.004639,0.049805,0.429688,143,258,70,128
43.554,15:34:5.554,-10.038086,0.993164,0.62207,0.036133,0.000977,-0.011475,0.,0.,0.,-1.678467,0.02417,0.04541,0.429688,146,281,78,128
43.654,15:34:5.654,-9.693359,0.360352,0.474609,0.009521,0.036133,0.134033,0.,0.,0.,-1.669922,0.053223,0.049316,0.429688,151,297,90,123
43.754,15:34:5.754,-9.693359,0.360352,0.474609,0.009521,0.036133,0.134033,0.,0.,0.,-1.669922,0.053223,0.049316,0.429688,151,297,90,123
43.854,15:34:5.854,-9.176758,-0.099609,-0.046875,0.015869,0.071289,0.199951,0.,0.,0.,-1.664062,0.075439,0.049072,0.441406,152,297,97,121
43.954,15:34:5.954,-9.37793,0.013672,-1.068359,0.007324,-0.055176,0.074463,0.,0.,0.,-1.659424,0.087402,0.049072,0.441406,155,253,103,120
44.054,15:34:6.054,-8.985352,1.473633,0.417969,0.026367,-0.022217,-0.023193,0.,0.,0.,-1.648926,0.093018,0.051514,0.457031,160,213,114,116
44.154,15:34:6.154,-9.224609,-1.625,-0.18457,0.013672,0.138184,-0.034912,0.,0.,0.,-1.644287,0.091309,0.05542,0.460938,162,205,117,113
44.254,15:34:6.254,-9.952148,0.807617,0.930664,0.030762,0.0979,-0.099854,0.,0.,0.,-1.638916,0.088135,0.062744,0.457031,165,185,120,111
44.354,15:34:6.354,-10.095703,-1.868164,0.003906,-0.029785,0.025391,0.007324,0.,0.,0.,-1.630371,0.063721,0.082031,0.457031,169,132,118,108
44.454,15:34:6.454,-9.544922,1.382812,0.189453,-0.010498,0.121094,-0.481934,0.,0.,0.,-1.62793,0.040771,0.08374,0.460938,169,106,124,108
44.554,15:34:6.554,-9.544922,1.382812,0.189453,-0.010498,0.121094,-0.481934,0.,0.,0.,-1.62793,0.040771,0.08374,0.460938,169,106,124,108
44.654,15:34:6.654,-9.291016,0.993164,0.222656,0.005127,-0.027588,-0.163818,0.,0.,0.,-1.624756,0.020508,0.086182,0.464844,169,164,128,107
44.754,15:34:6.754,-9.291016,0.993164,0.222656,0.005127,-0.027588,-0.163818,0.,0.,0.,-1.624756,0.020508,0.086182,0.464844,169,164,128,107
44.854,15:34:6.854,-9.291016,0.993164,0.222656,0.005127,-0.027588,-0.163818,0.,0.,0.,-1.624756,0.020508,0.086182,0.464844,169,164,128,107
44.954,15:34:6.954,-9.291016,0.993164,0.222656,0.005127,-0.027588,-0.163818,0.,0.,0.,-1.624756,0.020508,0.086182,0.464844,169,164,128,107
45.054,15:34:7.054,-9.597656,-0.285156,-0.132812,-0.032959,-0.080811,-0.015869,0.,0.,0.,-1.616943,-0.000732,0.057617,0.46875,168,247,120,109
45.154,15:34:7.154,-9.549805,1.820312,0.920898,-0.001953,-0.091309,-0.025391,0.,0.,0.,-1.615234,-0.003418,0.053467,0.460938,167,286,119,111
45.254,15:34:7.254,-9.416016,1.045898,0.455078,0.023193,-0.005127,-0.039307,0.,0.,0.,-1.614014,-0.006104,0.042236,0.460938,166,286,118,113
45.354,15:34:7.354,-9.554688,0.242188,0.118164,0.001953,-0.164795,-0.037109,0.,0.,0.,-1.610352,-0.007324,0.035889,0.457031,162,286,115,118
45.454,15:34:7.454,-9.554688,0.242188,0.118164,0.001953,-0.164795,-0.037109,0.,0.,0.,-1.610352,-0.007324,0.035889,0.457031,162,286,115,118
45.554,15:34:7.554,-9.760742,-0.408203,0.375,0.013672,0.041504,-0.037109,0.,0.,0.,-1.607178,-0.01001,0.031006,0.457031,158,286,113,119
45.654,15:34:7.654,-9.760742,-0.408203,0.375,0.013672,0.041504,-0.037109,0.,0.,0.,-1.607178,-0.01001,0.031006,0.457031,158,286,113,119
45.754,15:34:7.754,-9.554688,0.969727,0.322266,0.060547,-0.073242,-0.005127,0.,0.,0.,-1.599854,-0.030273,0.011963,0.460938,154,291,109,123
45.854,15:34:7.854,-9.746094,0.503906,-0.564453,0.051025,0.148926,-0.049805,0.,0.,0.,-1.593994,-0.036621,0.013916,0.457031,153,278,106,125
45.954,15:34:7.954,-9.793945,-0.94043,0.289062,0.04248,0.102051,-0.055176,0.,0.,0.,-1.587891,-0.038086,0.019287,0.484375,152,237,105,125
46.054,15:34:8.054,-9.162109,0.089844,-0.90625,0.040283,0.036133,0.014893,0.,0.,0.,-1.580566,-0.040527,0.032471,0.507812,152,274,101,124
46.154,15:34:8.154,-9.540039,0.550781,0.313477,0.034912,0.038086,0.029785,0.,0.,0.,-1.576416,-0.040039,0.037842,0.511719,153,275,99,124
46.254,15:34:8.254,-9.516602,-1.316406,-0.77832,0.045654,0.046631,-0.011475,0.,0.,0.,-1.572754,-0.041992,0.043701,0.511719,154,239,98,122
46.354,15:34:8.354,-9.660156,0.869141,-0.583984,0.019043,0.067871,-0.052979,0.,0.,0.,-1.568604,-0.039307,0.046631,0.511719,155,227,96,122
46.454,15:34:8.454,-9.617188,0.993164,0.066406,0.036133,0.024414,0.009521,0.,0.,0.,-1.564209,-0.037842,0.052002,0.503906,156,227,96,120
46.554,15:34:8.554,-9.889648,1.045898,1.010742,0.083984,0.065918,0.038086,0.,0.,0.,-1.559326,-0.038574,0.055664,0.5,160,237,96,119
46.654,15:34:8.654,-9.957031,-0.332031,-0.379883,0.040283,0.046631,0.023193,0.,0.,0.,-1.555176,-0.038086,0.055664,0.496094,163,267,96,116
46.754,15:34:8.754,-9.396484,1.041016,0.365234,0.052979,0.093506,0.146729,0.,0.,0.,-1.549316,-0.02832,0.061035,0.492188,166,277,96,114
46.854,15:34:8.854,-9.425781,0.232422,0.835938,0.043457,0.066895,0.045654,0.,0.,0.,-1.543701,-0.019775,0.066406,0.492188,168,277,97,112
46.954,15:34:8.954,-9.578125,0.323242,0.835938,0.061523,0.13501,0.101074,0.,0.,0.,-1.53833,-0.011963,0.072998,0.484375,172,205,99,111
47.054,15:34:9.054,-9.381836,1.178711,0.507812,0.071289,0.05957,0.028564,0.,0.,0.,-1.531982,-0.007812,0.076172,0.464844,176,97,101,107
47.154,15:34:9.154,-10.066406,0.950195,0.650391,0.039307,-0.000977,0.046631,0.,0.,0.,-1.525635,-0.003906,0.07373,0.457031,179,128,104,105
47.254,15:34:9.254,-10.473633,-1.087891,-0.141602,-0.000977,-0.051025,-0.010498,0.,0.,0.,-1.519531,0.008301,0.075439,0.496094,181,175,107,101
47.354,15:34:9.354,-10.473633,-1.087891,-0.141602,-0.000977,-0.051025,-0.010498,0.,0.,0.,-1.519531,0.008301,0.075439,0.496094,181,175,107,101
47.454,15:34:9.454,-9.841797,-1.188477,-0.522461,0.008301,0.026367,-0.137207,0.,0.,0.,-1.495361,0.036133,0.092285,0.496094,192,119,119,90
47.554,15:34:9.554,-9.841797,-1.188477,-0.522461,0.008301,0.026367,-0.137207,0.,0.,0.,-1.495361,0.036133,0.092285,0.496094,192,119,119,90
47.654,15:34:9.654,-9.62207,0.332031,-0.265625,0.019043,0.062744,-0.074463,0.,0.,0.,-1.490479,0.029785,0.092285,0.496094,196,112,120,87
47.754,15:34:9.754,-9.62207,0.332031,-0.265625,0.019043,0.062744,-0.074463,0.,0.,0.,-1.490479,0.029785,0.092285,0.496094,196,112,120,87
47.854,15:34:9.854,-9.506836,0.522461,-0.332031,0.009521,-0.049805,0.301025,0.,0.,0.,-1.483398,0.045166,0.088135,0.5,205,114,122,87
47.954,15:34:9.954,-9.28125,-0.598633,-0.740234,0.052979,-0.015869,0.112793,0.,0.,0.,-1.475098,0.056396,0.08667,0.5,207,118,123,87
48.054,15:34:10.054,-10.110352,-0.817383,-0.512695,0.034912,-0.019043,-0.408447,0.,0.,0.,-1.468506,0.035889,0.079346,0.496094,202,116,125,87
48.154,15:34:10.154,-9.645508,-0.033203,-0.18457,0.037109,-0.069092,-0.250977,0.,0.,0.,-1.462158,0.020752,0.07666,0.5,200,113,127,87
48.254,15:34:10.254,-9.879883,-0.78418,-0.612305,-0.009521,-0.038086,0.015869,0.,0.,0.,-1.45874,0.011719,0.073975,0.507812,197,115,131,88
48.354,15:34:10.354,-8.980469,0.865234,0.835938,0.034912,0.02002,-0.003174,0.,0.,0.,-1.45459,0.009277,0.068604,0.53125,196,119,129,89
48.454,15:34:10.454,-8.462891,-1.007812,-0.237305,0.013672,-0.069092,-0.197754,0.,0.,0.,-1.449463,0.006348,0.0625,0.527344,193,122,129,90
48.554,15:34:10.554,-8.462891,-1.007812,-0.237305,0.013672,-0.069092,-0.197754,0.,0.,0.,-1.449463,0.006348,0.0625,0.527344,193,122,129,90
48.654,15:34:10.654,-10.382812,0.061523,0.28418,0.011475,-0.072266,-0.039307,0.,0.,0.,-1.441162,-0.016113,0.053223,0.507812,190,132,129,95
48.754,15:34:10.754,-10.382812,0.061523,0.28418,0.011475,-0.072266,-0.039307,0.,0.,0.,-1.441162,-0.016113,0.053223,0.507812,190,132,129,95
48.854,15:34:10.854,-9.683594,0.650391,-0.023438,0.014893,0.023193,-0.110596,0.,0.,0.,-1.438721,-0.021729,0.046631,0.511719,189,138,129,98
48.954,15:34:10.954,-9.544922,0.693359,0.18457,0.025391,-0.013672,-0.030762,0.,0.,0.,-1.42749,-0.008545,0.03125,0.511719,182,135,131,105
49.054,15:34:11.054,-9.544922,0.693359,0.18457,0.025391,-0.013672,-0.030762,0.,0.,0.,-1.42749,-0.008545,0.03125,0.511719,182,135,131,105
49.154,15:34:11.154,-9.866211,0.512695,0.265625,-0.000977,0.029785,-0.063721,0.,0.,0.,-1.424805,-0.004395,0.0271,0.511719,181,137,131,108
49.254,15:34:11.254,-9.866211,0.512695,0.265625,-0.000977,0.029785,-0.063721,0.,0.,0.,-1.424805,-0.004395,0.0271,0.511719,181,137,131,108
49.354,15:34:11.354,-9.368164,0.,0.541016,0.015869,0.023193,-0.018066,0.,0.,0.,-1.420898,-0.003418,0.028076,0.515625,181,124,132,110
49.454,15:34:11.454,-9.808594,-0.108398,0.118164,0.031738,0.026367,0.011475,0.,0.,0.,-1.417236,-0.001709,0.026367,0.519531,179,116,132,112
49.554,15:34:11.554,-9.578125,-0.40332,-0.53125,0.008301,0.047852,0.125488,0.,0.,0.,-1.415039,0.000732,0.026611,0.519531,176,129,132,114
49.654,15:34:11.654,-9.765625,-0.34668,-0.693359,0.039307,0.022217,0.,0.,0.,0.,-1.410156,0.012207,0.028564,0.519531,174,139,132,118
49.754,15:34:11.754,-9.587891,-0.679688,-0.066406,0.001953,-0.024414,-0.243652,0.,0.,0.,-1.402588,0.008057,0.030273,0.519531,173,139,132,117
49.854,15:34:11.854,-9.836914,1.611328,0.612305,0.015869,-0.007324,0.024414,0.,0.,0.,-1.399902,-0.007812,0.027588,0.523438,175,139,130,117
49.954,15:34:11.954,-9.473633,-1.016602,0.626953,0.056396,0.191406,0.099854,0.,0.,0.,-1.394775,-0.013916,0.033203,0.535156,180,112,130,119
50.054,15:34:12.054,-9.229492,0.936523,0.72168,0.072266,0.070068,-0.040283,0.,0.,0.,-1.38916,-0.01123,0.039062,0.539062,179,104,128,122
50.154,15:34:12.154,-9.229492,0.936523,0.72168,0.072266,0.070068,-0.040283,0.,0.,0.,-1.38916,-0.01123,0.039062,0.539062,179,104,128,122
50.254,15:34:12.254,-9.774414,0.023438,-0.360352,0.067871,0.032959,0.437256,0.,0.,0.,-1.37085,0.091309,0.041016,0.53125,178,140,127,125
50.354,15:34:12.354,-9.248047,-0.108398,0.15625,0.070068,0.056396,-1.047119,0.,0.,0.,-1.361328,0.095459,0.041016,0.523438,180,140,129,124
50.454,15:34:12.454,-9.990234,-0.865234,-0.417969,0.07959,0.028564,-0.406494,0.,0.,0.,-1.354492,-0.024658,0.051758,0.527344,180,137,137,124
50.554,15:34:12.554,-9.990234,-0.865234,-0.417969,0.07959,0.028564,-0.406494,0.,0.,0.,-1.354492,-0.024658,0.051758,0.527344,180,137,137,124
50.654,15:34:12.654,-9.535156,-1.49707,-0.255859,-0.003174,0.029785,0.303223,0.,0.,0.,-1.346924,-0.033447,0.058838,0.558594,182,188,131,124
50.754,15:34:12.754,-9.535156,-1.49707,-0.255859,-0.003174,0.029785,0.303223,0.,0.,0.,-1.346924,-0.033447,0.058838,0.558594,182,188,131,124
50.854,15:34:12.854,-9.373047,-0.432617,-0.051758,0.034912,-0.044678,0.13501,0.,0.,0.,-1.342529,-0.027832,0.05835,0.5625,176,190,119,122
50.954,15:34:12.954,-9.665039,-1.777344,-0.668945,0.030762,-0.006348,-0.006348,0.,0.,0.,-1.337402,-0.020752,0.056885,0.566406,167,148,114,122
51.054,15:34:13.054,-9.665039,-1.777344,-0.668945,0.030762,-0.006348,-0.006348,0.,0.,0.,-1.337402,-0.020752,0.056885,0.566406,167,148,114,122
51.154,15:34:13.154,-9.300781,-1.140625,-0.051758,0.005127,-0.025391,-0.226562,0.,0.,0.,-1.328369,-0.02417,0.052734,0.566406,171,138,120,123
51.254,15:34:13.254,-10.138672,-0.213867,-0.958984,0.027588,-0.007324,0.21582,0.,0.,0.,-1.314453,0.007568,0.049805,0.53125,183,123,117,122
51.354,15:34:13.354,-10.138672,-0.213867,-0.958984,0.027588,-0.007324,0.21582,0.,0.,0.,-1.314453,0.007568,0.049805,0.53125,183,123,117,122
51.454,15:34:13.454,-9.386719,1.121094,0.731445,0.039307,-0.039307,-0.182861,0.,0.,0.,-1.30957,0.011963,0.052979,0.535156,187,135,108,119
51.554,15:34:13.554,-9.386719,1.121094,0.731445,0.039307,-0.039307,-0.182861,0.,0.,0.,-1.30957,0.011963,0.052979,0.535156,187,135,108,119
51.654,15:34:13.654,-9.506836,0.827148,1.253906,0.066895,0.046631,-0.076416,0.,0.,0.,-1.305176,0.009521,0.052246,0.527344,181,140,108,117
51.754,15:34:13.754,-9.879883,0.18457,0.50293,0.056396,0.174316,-0.505371,0.,0.,0.,-1.300781,-0.007812,0.052734,0.519531,178,146,114,116
51.854,15:34:13.854,-10.181641,-0.360352,0.602539,0.02124,0.044678,-0.039307,0.,0.,0.,-1.297363,-0.045898,0.061768,0.523438,185,141,125,116
51.954,15:34:13.954,-10.181641,-0.360352,0.602539,0.02124,0.044678,-0.039307,0.,0.,0.,-1.297363,-0.045898,0.061768,0.523438,185,141,125,116
52.054,15:34:14.054,-9.272461,-0.041992,-0.132812,0.031738,0.006348,-0.083008,0.,0.,0.,-1.287109,0.003662,0.063232,0.542969,192,126,109,118
52.154,15:34:14.154,-9.602539,1.135742,-0.132812,0.083008,-0.124512,-0.725586,0.,0.,0.,-1.280762,0.00708,0.056641,0.53125,194,117,109,115
52.254,15:34:14.254,-10.277344,-0.575195,-0.398438,0.015869,-0.005127,0.016846,0.,0.,0.,-1.274414,-0.01416,0.050781,0.53125,193,123,110,113
52.354,15:34:14.354,-10.186523,-1.021484,0.270508,0.052979,0.269043,0.154297,0.,0.,0.,-1.268555,-0.032471,0.061523,0.539062,193,132,109,112
52.454,15:34:14.454,-9.037109,1.397461,0.426758,0.049805,0.043457,-0.108398,0.,0.,0.,-1.264404,-0.033936,0.070068,0.542969,194,132,109,112
52.554,15:34:14.554,-10.545898,0.360352,-0.50293,0.016846,0.02124,0.026367,0.,0.,0.,-1.257324,-0.014404,0.066406,0.539062,197,131,118,111
52.654,15:34:14.654,-10.545898,0.360352,-0.50293,0.016846,0.02124,0.026367,0.,0.,0.,-1.257324,-0.014404,0.066406,0.539062,197,131,118,111
52.754,15:34:14.754,-9.449219,-0.408203,0.298828,0.036133,-0.027588,0.346924,0.,0.,0.,-1.251465,-0.006592,0.064453,0.550781,198,129,118,111
52.854,15:34:14.854,-9.272461,0.588867,0.212891,0.04248,-0.026367,-0.007324,0.,0.,0.,-1.245605,0.015869,0.057129,0.5625,201,127,118,109
52.954,15:34:14.954,-8.855469,1.331055,0.341797,0.040283,-0.027588,-0.161621,0.,0.,0.,-1.240723,0.024902,0.056152,0.578125,202,125,120,103
53.054,15:34:15.054,-8.855469,1.331055,0.341797,0.040283,-0.027588,-0.161621,0.,0.,0.,-1.240723,0.024902,0.056152,0.578125,202,125,120,103
53.154,15:34:15.154,-9.291016,-0.512695,-0.40332,0.005127,0.416016,0.039307,0.,0.,0.,-1.229736,0.017334,0.068604,0.582031,202,121,122,98
53.254,15:34:15.254,-9.477539,1.359375,0.246094,0.041504,0.026367,-0.115967,0.,0.,0.,-1.224365,0.015869,0.085449,0.5625,204,118,122,98
53.354,15:34:15.354,-9.755859,0.759766,0.479492,0.031738,-0.075439,-0.104248,0.,0.,0.,-1.218994,0.014648,0.092285,0.550781,205,115,132,98
53.454,15:34:15.454,-10.124023,-0.789062,-0.446289,0.,-0.016846,-0.027588,0.,0.,0.,-1.212891,0.013672,0.091553,0.542969,205,117,148,98
53.554,15:34:15.554,-9.569336,-1.049805,-0.350586,0.016846,-0.038086,0.019043,0.,0.,0.,-1.201416,0.016113,0.067139,0.539062,206,112,196,97
53.654,15:34:15.654,-9.569336,-1.049805,-0.350586,0.016846,-0.038086,0.019043,0.,0.,0.,-1.201416,0.016113,0.067139,0.539062,206,112,196,97
53.754,15:34:15.754,-9.650391,0.232422,-0.003906,0.040283,-0.084961,0.005127,0.,0.,0.,-1.19458,0.018311,0.062256,0.535156,206,108,191,100
53.854,15:34:15.854,-9.612305,0.46582,0.360352,0.02124,-0.003174,-0.007324,0.,0.,0.,-1.187256,0.014404,0.065918,0.53125,207,102,189,101
53.954,15:34:15.954,-9.760742,-0.46582,0.436523,0.033936,-0.066895,0.308594,0.,0.,0.,-1.180176,0.022705,0.060303,0.53125,207,98,187,103
54.054,15:34:16.054,-9.760742,-0.46582,0.436523,0.033936,-0.066895,0.308594,0.,0.,0.,-1.180176,0.022705,0.060303,0.53125,207,98,187,103
54.154,15:34:16.154,-9.152344,0.512695,-0.474609,0.038086,-0.105225,-0.015869,0.,0.,0.,-1.166504,0.052734,0.037842,0.539062,206,100,137,105
54.254,15:34:16.254,-9.55957,0.179688,0.237305,0.026367,0.011475,0.00415,0.,0.,0.,-1.158936,0.049805,0.036133,0.554688,206,101,105,110
54.354,15:34:16.354,-10.458984,0.084961,0.013672,0.071289,-0.088135,-0.047852,0.,0.,0.,-1.138184,-0.000732,0.017334,0.515625,224,103,142,114
54.454,15:34:16.454,-10.148438,-0.59375,0.008789,0.086182,-0.008301,-0.062744,0.,0.,0.,-1.13208,-0.009277,0.012207,0.53125,213,103,109,117
54.554,15:34:16.554,-10.148438,-0.59375,0.008789,0.086182,-0.008301,-0.062744,0.,0.,0.,-1.13208,-0.009277,0.012207,0.53125,213,103,109,117
54.654,15:34:16.654,-9.233398,0.84082,-0.332031,0.067871,0.141357,-0.087158,0.,0.,0.,-1.124512,-0.01001,0.011963,0.535156,228,103,175,122
54.754,15:34:16.754,-9.233398,0.84082,-0.332031,0.067871,0.141357,-0.087158,0.,0.,0.,-1.124512,-0.01001,0.011963,0.535156,228,103,175,122
54.854,15:34:16.854,-9.248047,-0.660156,0.12793,0.048828,0.070068,0.064697,0.,0.,0.,-1.117432,-0.009766,0.033691,0.535156,251,104,220,118
54.954,15:34:16.954,-9.617188,-0.123047,0.003906,0.064697,-0.024414,0.116943,0.,0.,0.,-1.110107,-0.009521,0.03833,0.53125,243,105,196,114
55.054,15:34:17.054,-10.105469,0.037109,0.056641,0.033936,0.046631,-0.057373,0.,0.,0.,-1.10376,-0.005615,0.030273,0.527344,233,106,178,116
55.154,15:34:17.154,-10.105469,0.037109,0.056641,0.033936,0.046631,-0.057373,0.,0.,0.,-1.10376,-0.005615,0.030273,0.527344,233,106,178,116
55.254,15:34:17.254,-9.9375,-0.084961,-0.094727,0.038086,0.036133,0.018066,0.,0.,0.,-1.092285,-0.006104,0.060303,0.519531,233,105,168,119
55.354,15:34:17.354,-9.420898,-0.708008,-0.383789,0.032959,-0.22876,0.095703,0.,0.,0.,-1.084717,-0.00415,0.058105,0.523438,234,105,177,117
55.454,15:34:17.454,-9.726562,-0.674805,-0.265625,0.086182,0.025391,-0.011475,0.,0.,0.,-1.080322,-0.003662,0.044922,0.515625,236,105,167,114
55.554,15:34:17.554,-9.554688,-0.541016,0.179688,0.027588,0.172363,0.032959,0.,0.,0.,-1.069092,0.003174,0.070557,0.523438,206,103,120,108
55.654,15:34:17.654,-9.554688,-0.541016,0.179688,0.027588,0.172363,0.032959,0.,0.,0.,-1.069092,0.003174,0.070557,0.523438,206,103,120,108
55.754,15:34:17.754,-9.181641,-0.974609,-0.640625,0.029785,0.066895,0.078613,0.,0.,0.,-1.062012,0.000977,0.079834,0.535156,220,103,135,106
55.854,15:34:17.854,-9.961914,-0.023438,-0.161133,0.038086,0.107422,-0.05957,0.,0.,0.,-1.05542,0.008057,0.0979,0.539062,242,103,148,104
55.954,15:34:17.954,-9.665039,-0.888672,-0.474609,-0.016846,0.174316,-0.121094,0.,0.,0.,-1.050293,0.008789,0.102783,0.539062,221,103,169,101
56.054,15:34:18.054,-10.574219,-0.484375,0.536133,0.030762,0.087158,-0.04248,0.,0.,0.,-1.044189,0.006592,0.10083,0.539062,207,103,168,99
56.154,15:34:18.154,-9.975586,-0.750977,-0.161133,0.023193,-0.065918,0.036133,0.,0.,0.,-1.0271,-0.000488,0.106689,0.550781,163,104,187,95
56.254,15:34:18.254,-9.746094,-0.208984,0.873047,0.023193,-0.013672,-0.107422,0.,0.,0.,-1.021729,-0.000977,0.099609,0.550781,163,104,190,94
56.354,15:34:18.354,-9.851562,-1.587891,-0.365234,-0.013672,-0.067871,-0.128662,0.,0.,0.,-1.015381,-0.001709,0.093506,0.554688,164,106,161,94
56.454,15:34:18.454,-9.841797,0.555664,0.745117,0.,0.024414,0.034912,0.,0.,0.,-1.010742,-0.003174,0.091064,0.550781,166,109,155,93
56.554,15:34:18.554,-9.841797,0.555664,0.745117,0.,0.024414,0.034912,0.,0.,0.,-1.010742,-0.003174,0.091064,0.550781,166,109,155,93
56.654,15:34:18.654,-9.458984,2.28125,0.94043,0.055176,0.001953,-0.034912,0.,0.,0.,-1.00708,-0.006348,0.086182,0.546875,187,110,165,93
56.754,15:34:18.754,-9.458984,2.28125,0.94043,0.055176,0.001953,-0.034912,0.,0.,0.,-1.00708,-0.006348,0.086182,0.546875,187,110,165,93
56.854,15:34:18.854,-9.348633,0.688477,0.801758,0.027588,-0.030762,-0.099854,0.,0.,0.,-1.003418,-0.017334,0.080078,0.550781,201,112,167,95
56.954,15:34:18.954,-9.602539,-1.578125,-0.383789,0.012695,-0.11377,-0.081787,0.,0.,0.,-0.999023,-0.020508,0.078125,0.550781,221,114,165,97
57.054,15:34:19.054,-9.612305,-0.655273,0.089844,-0.00415,0.032959,-0.051025,0.,0.,0.,-0.994873,-0.022217,0.069336,0.546875,235,117,161,98
57.154,15:34:19.154,-9.195312,0.356445,-0.28418,0.049805,-0.158447,-0.11792,0.,0.,0.,-0.990479,-0.02417,0.0625,0.542969,231,119,157,99
57.254,15:34:19.254,-9.827148,0.413086,-0.293945,0.054199,-0.051025,0.000977,0.,0.,0.,-0.986084,-0.031982,0.055908,0.539062,229,123,155,101
57.354,15:34:19.354,-9.84668,-0.179688,0.498047,0.04248,0.015869,-0.023193,0.,0.,0.,-0.981201,-0.0354,0.050049,0.527344,224,124,152,103
57.454,15:34:19.454,-10.373047,-0.489258,-0.350586,0.014893,-0.02124,-0.034912,0.,0.,0.,-0.975586,-0.0354,0.047363,0.523438,222,127,150,106
57.554,15:34:19.554,-9.678711,-0.151367,1.010742,0.040283,0.014893,0.102051,0.,0.,0.,-0.965332,-0.018066,0.039551,0.535156,216,129,147,111
57.654,15:34:19.654,-9.678711,-0.151367,1.010742,0.040283,0.014893,0.102051,0.,0.,0.,-0.965332,-0.018066,0.039551,0.535156,216,129,147,111
57.754,15:34:19.754,-9.798828,-0.360352,0.303711,0.037109,0.025391,-0.028564,0.,0.,0.,-0.959961,-0.008545,0.031494,0.527344,212,129,146,113
57.854,15:34:19.854,-9.798828,-0.360352,0.303711,0.037109,0.025391,-0.028564,0.,0.,0.,-0.959961,-0.008545,0.031494,0.527344,212,129,146,113
57.954,15:34:19.954,-9.416016,-0.936523,0.303711,0.065918,0.007324,0.05957,0.,0.,0.,-0.949707,-0.00415,0.032227,0.542969,207,132,142,119
58.054,15:34:20.054,-9.914062,0.166016,0.612305,0.04248,0.046631,-0.036133,0.,0.,0.,-0.943359,-0.002441,0.024902,0.542969,219,135,141,122
58.154,15:34:20.154,-9.798828,-0.251953,0.702148,0.040283,0.003174,-0.055176,0.,0.,0.,-0.937012,0.,0.023438,0.539062,260,134,140,124
58.254,15:34:20.254,-9.894531,-0.921875,-0.360352,0.026367,0.045654,0.00415,0.,0.,0.,-0.93042,-0.000244,0.027588,0.535156,261,133,139,127
58.354,15:34:20.354,-9.851562,0.797852,0.635742,0.041504,0.182861,-0.026367,0.,0.,0.,-0.924561,-0.002686,0.033936,0.523438,225,133,139,129
58.454,15:34:20.454,-9.836914,-0.123047,0.550781,0.049805,0.064697,-0.036133,0.,0.,0.,-0.91748,-0.002686,0.043457,0.519531,206,134,138,132
58.554,15:34:20.554,-9.760742,0.84082,0.417969,0.051025,0.07959,0.,0.,0.,0.,-0.910645,-0.002686,0.051025,0.523438,185,133,138,133
58.654,15:34:20.654,-9.947266,-0.094727,0.246094,0.057373,0.033936,-0.043457,0.,0.,0.,-0.903564,-0.003418,0.052979,0.53125,188,133,137,136
58.754,15:34:20.754,-9.655273,0.46582,0.517578,0.041504,0.033936,-0.033936,0.,0.,0.,-0.898193,-0.000488,0.053955,0.542969,219,133,137,137
58.854,15:34:20.854,-9.578125,0.217773,0.275391,0.057373,-0.019043,0.023193,0.,0.,0.,-0.887695,0.001221,0.052979,0.550781,236,134,138,137
58.954,15:34:20.954,-9.578125,0.217773,0.275391,0.057373,-0.019043,0.023193,0.,0.,0.,-0.887695,0.001221,0.052979,0.550781,236,134,138,137
59.054,15:34:21.054,-10.076172,-0.512695,-0.046875,-0.010498,-0.016846,0.007324,0.,0.,0.,-0.845215,0.006348,0.049805,0.558594,150,134,144,146
59.154,15:34:21.154,-10.076172,-0.512695,-0.046875,-0.010498,-0.016846,0.007324,0.,0.,0.,-0.845215,0.006348,0.049805,0.558594,150,134,144,146
59.254,15:34:21.254,-9.62207,-0.370117,0.963867,0.00415,0.040283,-0.041504,0.,0.,0.,-0.838135,0.006348,0.049316,0.5625,190,135,142,146
59.354,15:34:21.354,-9.62207,-0.370117,0.963867,0.00415,0.040283,-0.041504,0.,0.,0.,-0.838135,0.006348,0.049316,0.5625,190,135,142,146
59.454,15:34:21.454,-9.736328,-1.316406,-0.882812,-0.00415,0.02124,0.02124,0.,0.,0.,-0.832764,0.005127,0.049561,0.5625,252,132,141,146
59.554,15:34:21.554,-9.736328,-1.316406,-0.882812,-0.00415,0.02124,0.02124,0.,0.,0.,-0.832764,0.005127,0.049561,0.5625,252,132,141,146
59.654,15:34:21.654,-9.592773,0.631836,0.660156,0.057373,0.040283,-0.029785,0.,0.,0.,-0.825928,0.005127,0.049316,0.554688,240,131,141,146
59.754,15:34:21.754,-9.592773,0.631836,0.660156,0.057373,0.040283,-0.029785,0.,0.,0.,-0.825928,0.005127,0.049316,0.554688,240,131,141,146
59.854,15:34:21.854,-9.592773,0.631836,0.660156,0.057373,0.040283,-0.029785,0.,0.,0.,-0.825928,0.005127,0.049316,0.554688,240,131,141,146
59.954,15:34:21.954,-9.665039,-0.066406,0.046875,0.018066,0.02124,-0.057373,0.,0.,0.,-0.818359,0.004639,0.049561,0.554688,224,131,141,146
60.054,15:34:22.054,-10.110352,-0.907227,-0.806641,0.031738,0.062744,-0.003174,0.,0.,0.,-0.812012,0.005371,0.050537,0.554688,227,132,141,147
60.154,15:34:22.154,-10.110352,-0.907227,-0.806641,0.031738,0.062744,-0.003174,0.,0.,0.,-0.812012,0.005371,0.050537,0.554688,227,132,141,147
60.254,15:34:22.254,-9.665039,0.94043,-0.075195,0.052002,0.000977,-0.001953,0.,0.,0.,-0.796631,0.003906,0.049561,0.550781,239,133,141,148
60.354,15:34:22.354,-9.755859,-0.641602,0.844727,0.016846,0.014893,-0.05957,0.,0.,0.,-0.788086,0.001953,0.051514,0.550781,250,133,141,148
60.454,15:34:22.454,-9.617188,-0.041992,0.645508,0.074463,0.036133,-0.033936,0.,0.,0.,-0.782715,0.001709,0.050293,0.550781,253,134,140,148
60.554,15:34:22.554,-9.411133,0.285156,0.260742,0.029785,0.052979,0.006348,0.,0.,0.,-0.760498,0.000488,0.05249,0.539062,251,135,139,147
60.654,15:34:22.654,-9.411133,0.285156,0.260742,0.029785,0.052979,0.006348,0.,0.,0.,-0.760498,0.000488,0.05249,0.539062,251,135,139,147
60.754,15:34:22.754,-10.397461,0.071289,0.792969,0.039307,0.012695,-0.034912,0.,0.,0.,-0.752686,0.000244,0.052979,0.535156,251,136,137,147
60.854,15:34:22.854,-10.397461,0.071289,0.792969,0.039307,0.012695,-0.034912,0.,0.,0.,-0.752686,0.000244,0.052979,0.535156,251,136,137,147
60.954,15:34:22.954,-9.832031,-1.145508,-0.041992,0.040283,0.013672,-0.045654,0.,0.,0.,-0.744873,-0.000732,0.052979,0.539062,251,137,137,145
61.054,15:34:23.054,-9.832031,-1.145508,-0.041992,0.040283,0.013672,-0.045654,0.,0.,0.,-0.744873,-0.000732,0.052979,0.539062,251,137,137,145
61.154,15:34:23.154,-9.401367,-0.379883,0.660156,0.02002,-0.013672,0.032959,0.,0.,0.,-0.724365,-0.000977,0.05249,0.554688,250,114,136,144
61.254,15:34:23.254,-9.401367,-0.379883,0.660156,0.02002,-0.013672,0.032959,0.,0.,0.,-0.724365,-0.000977,0.05249,0.554688,250,114,136,144
61.354,15:34:23.354,-9.128906,1.454102,-1.040039,0.056396,0.008301,0.44043,0.,0.,0.,-0.717529,0.008301,0.052246,0.550781,250,131,135,143
61.454,15:34:23.454,-9.698242,1.202148,0.53125,0.062744,0.041504,0.048828,0.,0.,0.,-0.70874,0.036377,0.052734,0.550781,250,137,135,143
61.554,15:34:23.554,-9.540039,0.142578,0.413086,0.037109,0.015869,-0.848145,0.,0.,0.,-0.70166,0.023438,0.050049,0.550781,251,139,135,141
61.654,15:34:23.654,-9.660156,0.878906,1.082031,0.043457,-0.00415,-0.129639,0.,0.,0.,-0.695068,-0.014648,0.052002,0.546875,251,140,135,141
61.754,15:34:23.754,-9.617188,-0.308594,-0.512695,0.005127,-0.006348,0.260498,0.,0.,0.,-0.689697,-0.026611,0.053223,0.5625,252,141,134,139
61.854,15:34:23.854,-8.467773,1.535156,0.037109,0.036133,0.009521,-0.049805,0.,0.,0.,-0.681152,-0.020508,0.053711,0.570312,253,142,133,139
61.954,15:34:23.954,-9.416016,0.669922,-0.170898,0.064697,0.014893,-0.064697,0.,0.,0.,-0.65332,-0.007568,0.056885,0.5625,256,142,132,138
62.054,15:34:24.054,-9.587891,0.789062,-0.303711,0.051025,-0.030762,-0.030762,0.,0.,0.,-0.64624,-0.004639,0.059326,0.5625,256,142,131,135
62.154,15:34:24.154,-10.138672,-1.273438,-0.617188,0.073242,0.000977,0.030762,0.,0.,0.,-0.630859,-0.005127,0.059326,0.554688,258,142,131,132
62.254,15:34:24.254,-9.544922,-0.137695,0.62207,0.05957,0.05835,-0.013672,0.,0.,0.,-0.622559,-0.004639,0.061035,0.550781,259,141,133,131
62.354,15:34:24.354,-9.544922,-0.137695,0.62207,0.05957,0.05835,-0.013672,0.,0.,0.,-0.622559,-0.004639,0.061035,0.550781,259,141,133,131
62.454,15:34:24.454,-9.942383,-0.479492,0.835938,0.026367,0.047852,-0.029785,0.,0.,0.,-0.612793,-0.003418,0.060059,0.550781,260,141,132,131
62.554,15:34:24.554,-9.942383,-0.479492,0.835938,0.026367,0.047852,-0.029785,0.,0.,0.,-0.612793,-0.003418,0.060059,0.550781,260,141,132,131
62.654,15:34:24.654,-9.181641,0.46582,-0.070312,0.066895,-0.009521,-0.028564,0.,0.,0.,-0.605713,-0.00293,0.05957,0.554688,262,141,131,130
62.754,15:34:24.754,-9.181641,0.46582,-0.070312,0.066895,-0.009521,-0.028564,0.,0.,0.,-0.605713,-0.00293,0.05957,0.554688,262,141,131,130
62.854,15:34:24.854,-9.875,0.750977,0.526367,0.048828,0.,-0.016846,0.,0.,0.,-0.598145,-0.002441,0.058838,0.554688,263,141,129,129
62.954,15:34:24.954,-9.875,0.750977,0.526367,0.048828,0.,-0.016846,0.,0.,0.,-0.598145,-0.002441,0.058838,0.554688,263,141,129,129
63.054,15:34:25.054,-9.808594,-0.175781,-0.179688,0.026367,0.007324,-0.029785,0.,0.,0.,-0.588135,-0.001953,0.058838,0.554688,263,141,128,128
63.154,15:34:25.154,-9.416016,-0.084961,0.013672,0.075439,0.022217,0.,0.,0.,0.,-0.578369,-0.002197,0.056885,0.554688,263,141,128,128
63.254,15:34:25.254,-9.78418,0.712891,-0.459961,0.044678,0.036133,0.012695,0.,0.,0.,-0.570068,-0.003418,0.057373,0.554688,263,125,129,128
63.354,15:34:25.354,-9.607422,-0.703125,-0.464844,0.044678,0.052979,-0.023193,0.,0.,0.,-0.562256,-0.00415,0.057129,0.554688,264,101,129,128
63.454,15:34:25.454,-9.607422,-0.703125,-0.464844,0.044678,0.052979,-0.023193,0.,0.,0.,-0.562256,-0.00415,0.057129,0.554688,264,101,129,128
63.554,15:34:25.554,-9.540039,0.698242,-0.12793,0.074463,-0.022217,0.19458,0.,0.,0.,-0.547363,0.002441,0.056641,0.558594,264,139,130,126
63.654,15:34:25.654,-9.300781,1.092773,0.849609,0.072266,0.011475,0.019043,0.,0.,0.,-0.536133,0.012207,0.056152,0.558594,264,138,131,125
63.754,15:34:25.754,-9.961914,-0.222656,0.108398,0.038086,-0.010498,-0.293701,0.,0.,0.,-0.526611,0.004395,0.054932,0.554688,265,138,130,125
63.854,15:34:25.854,-9.961914,-0.222656,0.108398,0.038086,-0.010498,-0.293701,0.,0.,0.,-0.526611,0.004395,0.054932,0.554688,265,138,130,125
63.954,15:34:25.954,-9.46875,1.069336,1.324219,0.0979,0.052979,0.110596,0.,0.,0.,-0.507568,-0.009277,0.054443,0.5625,268,138,130,124
64.054,15:34:26.054,-9.640625,-0.037109,-0.564453,0.063721,-0.009521,0.,0.,0.,0.,-0.499756,-0.007568,0.053223,0.5625,265,138,130,124
64.154,15:34:26.154,-9.760742,-0.118164,-0.421875,0.025391,0.022217,-0.041504,0.,0.,0.,-0.491211,-0.004639,0.053223,0.5625,265,139,131,124
64.254,15:34:26.254,-9.305664,0.517578,1.120117,0.083008,0.057373,-0.007324,0.,0.,0.,-0.480957,-0.00415,0.053711,0.5625,265,138,132,123
64.354,15:34:26.354,-9.310547,1.558594,-0.821289,0.049805,-0.043457,0.027588,0.,0.,0.,-0.472656,-0.004883,0.054688,0.5625,266,138,131,123
64.454,15:34:26.454,-9.277344,0.413086,-0.118164,0.07959,0.052002,-0.019043,0.,0.,0.,-0.463379,-0.005127,0.054443,0.5625,266,138,131,122
64.554,15:34:26.554,-10.229492,-1.007812,-0.512695,-0.001953,-0.009521,-0.055176,0.,0.,0.,-0.455566,-0.002197,0.05249,0.5625,269,138,122,122
64.654,15:34:26.654,-9.708008,-0.617188,0.013672,0.061523,0.014893,-0.011475,0.,0.,0.,-0.44751,-0.001709,0.054688,0.558594,275,138,116,122
64.754,15:34:26.754,-9.487305,0.255859,0.099609,0.014893,0.067871,-0.129639,0.,0.,0.,-0.436523,-0.007324,0.056396,0.554688,274,138,124,122
64.854,15:34:26.854,-9.808594,0.336914,0.383789,0.062744,0.037109,-0.037109,0.,0.,0.,-0.428955,-0.016846,0.055176,0.558594,274,137,130,121
64.954,15:34:26.954,-9.808594,0.336914,0.383789,0.062744,0.037109,-0.037109,0.,0.,0.,-0.428955,-0.016846,0.055176,0.558594,274,137,130,121
65.054,15:34:27.054,-9.808594,0.336914,0.383789,0.062744,0.037109,-0.037109,0.,0.,0.,-0.428955,-0.016846,0.055176,0.558594,274,137,130,121
65.154,15:34:27.154,-9.789062,-0.033203,0.555664,0.05835,0.030762,-0.132812,0.,0.,0.,-0.398682,0.005615,0.052979,0.558594,226,136,132,122
65.254,15:34:27.254,-9.592773,0.78418,0.15625,0.052002,0.015869,-0.031738,0.,0.,0.,-0.390381,0.005859,0.053955,0.558594,268,136,133,121
65.354,15:34:27.354,-9.325195,-0.822266,-0.854492,0.032959,0.033936,-0.025391,0.,0.,0.,-0.381836,0.003418,0.054688,0.558594,268,135,133,121
65.454,15:34:27.454,-9.325195,-0.822266,-0.854492,0.032959,0.033936,-0.025391,0.,0.,0.,-0.381836,0.003418,0.054688,0.558594,268,135,133,121
65.554,15:34:27.554,-9.325195,-0.822266,-0.854492,0.032959,0.033936,-0.025391,0.,0.,0.,-0.381836,0.003418,0.054688,0.558594,268,135,133,121
65.654,15:34:27.654,-9.229492,0.356445,0.925781,0.039307,0.003174,-0.041504,0.,0.,0.,-0.348877,0.001221,0.057617,0.5625,268,133,135,120
65.754,15:34:27.754,-9.229492,0.356445,0.925781,0.039307,0.003174,-0.041504,0.,0.,0.,-0.348877,0.001221,0.057617,0.5625,268,133,135,120
65.854,15:34:27.854,-10.100586,0.888672,0.289062,0.010498,0.026367,-0.027588,0.,0.,0.,-0.342773,0.000977,0.057861,0.5625,269,133,136,119
65.954,15:34:27.954,-9.770508,-0.517578,-0.441406,0.011475,0.07959,0.,0.,0.,0.,-0.335693,0.000488,0.059082,0.558594,207,132,136,119
66.054,15:34:28.054,-9.31543,-0.822266,-0.849609,0.033936,0.034912,-0.025391,0.,0.,0.,-0.311523,0.000977,0.057373,0.554688,271,131,137,119
66.154,15:34:28.154,-9.363281,1.021484,-0.697266,0.056396,-0.015869,-0.025391,0.,0.,0.,-0.302734,0.002441,0.05835,0.550781,277,130,137,119
66.254,15:34:28.254,-9.041992,0.865234,0.056641,0.045654,0.047852,0.030762,0.,0.,0.,-0.292969,0.003174,0.057373,0.550781,281,130,137,119
66.354,15:34:28.354,-9.569336,0.603516,-0.008789,0.038086,0.015869,-0.019043,0.,0.,0.,-0.28418,0.000488,0.059082,0.546875,274,130,138,120
66.454,15:34:28.454,-9.607422,1.087891,-0.051758,0.018066,0.057373,-0.087158,0.,0.,0.,-0.276611,-0.000977,0.061035,0.546875,270,130,139,120
66.554,15:34:28.554,-9.607422,1.087891,-0.051758,0.018066,0.057373,-0.087158,0.,0.,0.,-0.276611,-0.000977,0.061035,0.546875,270,130,139,120
66.654,15:34:28.654,-9.789062,-1.263672,-0.28418,0.003174,-0.040283,-0.036133,0.,0.,0.,-0.270264,-0.000977,0.061035,0.542969,271,129,141,121
66.754,15:34:28.754,-9.789062,-1.263672,-0.28418,0.003174,-0.040283,-0.036133,0.,0.,0.,-0.270264,-0.000977,0.061035,0.542969,271,129,141,121
66.854,15:34:28.854,-9.712891,-0.108398,-0.72168,0.010498,0.060547,-0.006348,0.,0.,0.,-0.261475,-0.001221,0.057373,0.542969,272,129,127,121
66.954,15:34:28.954,-9.487305,-0.108398,-0.327148,-0.003174,0.016846,0.005127,0.,0.,0.,-0.251221,-0.002197,0.056152,0.539062,270,129,105,121
67.054,15:34:29.054,-9.574219,0.075195,0.104492,0.012695,0.018066,-0.056396,0.,0.,0.,-0.244385,-0.003418,0.057129,0.535156,270,129,119,122
67.154,15:34:29.154,-10.402344,-1.758789,-0.174805,-0.018066,0.062744,-0.433105,0.,0.,0.,-0.238281,-0.019531,0.055908,0.535156,196,129,142,123
67.254,15:34:29.254,-9.755859,-0.545898,-0.327148,0.00415,0.028564,-0.126465,0.,0.,0.,-0.230713,-0.032715,0.052246,0.539062,148,129,142,124
67.354,15:34:29.354,-9.703125,-0.874023,0.731445,0.007324,0.00415,0.503174,0.,0.,0.,-0.222412,-0.008301,0.05249,0.542969,220,128,143,125
67.454,15:34:29.454,-9.703125,-0.874023,0.731445,0.007324,0.00415,0.503174,0.,0.,0.,-0.222412,-0.008301,0.05249,0.542969,220,128,143,125
67.554,15:34:29.554,-9.803711,-0.62207,-0.270508,0.009521,0.048828,-0.15625,0.,0.,0.,-0.202393,0.015869,0.053223,0.542969,267,126,145,126
67.654,15:34:29.654,-9.899414,-0.555664,-0.151367,0.022217,0.029785,-0.04248,0.,0.,0.,-0.193359,0.009766,0.051514,0.550781,265,125,145,126
67.754,15:34:29.754,-9.267578,0.797852,-0.459961,0.083984,0.005127,-0.048828,0.,0.,0.,-0.186768,0.005371,0.05127,0.554688,265,125,146,127
67.854,15:34:29.854,-9.765625,-0.379883,-0.759766,0.013672,-0.034912,-0.023193,0.,0.,0.,-0.177979,0.002686,0.050781,0.558594,262,126,146,128
67.954,15:34:29.954,-9.592773,0.341797,-0.28418,0.014893,0.060547,-0.069092,0.,0.,0.,-0.169922,0.001221,0.051514,0.554688,255,124,148,129
68.054,15:34:30.054,-9.755859,-0.108398,-0.222656,0.033936,-0.022217,-0.043457,0.,0.,0.,-0.15625,-0.000732,0.053223,0.546875,261,122,149,131
68.154,15:34:30.154,-9.678711,-0.008789,0.123047,0.008301,-0.019043,-0.04248,0.,0.,0.,-0.148682,-0.002686,0.057861,0.542969,232,122,149,132
68.254,15:34:30.254,-9.899414,-0.389648,0.355469,-0.000977,0.065918,-0.009521,0.,0.,0.,-0.141602,-0.002441,0.060059,0.542969,139,122,151,133
68.354,15:34:30.354,-9.741211,1.183594,0.569336,0.045654,0.034912,-0.02124,0.,0.,0.,-0.13501,-0.002441,0.061523,0.539062,139,122,151,133
68.454,15:34:30.454,-9.645508,-0.427734,0.242188,0.006348,-0.181885,-0.069092,0.,0.,0.,-0.127197,-0.001709,0.058105,0.542969,230,120,151,134
68.554,15:34:30.554,-9.9375,-0.370117,-1.229492,0.006348,-0.17334,0.037109,0.,0.,0.,-0.117676,-0.002441,0.022461,0.542969,252,120,151,135
68.654,15:34:30.654,-9.9375,-0.370117,-1.229492,0.006348,-0.17334,0.037109,0.,0.,0.,-0.117676,-0.002441,0.022461,0.542969,252,120,151,135
68.754,15:34:30.754,-9.894531,-0.033203,-0.161133,0.010498,0.476562,-0.036133,0.,0.,0.,-0.11084,-0.005371,0.026367,0.539062,225,120,152,136
68.854,15:34:30.854,-9.770508,-1.473633,-0.018555,0.016846,0.174316,-0.092529,0.,0.,0.,-0.10498,-0.006104,0.076904,0.539062,225,120,152,137
68.954,15:34:30.954,-9.574219,-0.323242,-0.398438,0.039307,-0.024414,0.013672,0.,0.,0.,-0.096436,-0.002686,0.0896,0.539062,249,119,153,138
69.054,15:34:31.054,-9.894531,0.037109,0.080078,0.052979,0.039307,0.040283,0.,0.,0.,-0.087646,-0.001465,0.079346,0.539062,239,119,154,138
69.154,15:34:31.154,-9.526367,0.522461,-0.322266,0.005127,-0.104248,0.073242,0.,0.,0.,-0.078369,-0.000977,0.074219,0.539062,187,118,155,139
69.254,15:34:31.254,-10.186523,0.779297,0.716797,0.041504,-0.009521,-0.003174,0.,0.,0.,-0.053467,0.006348,0.065186,0.535156,250,116,157,145
69.354,15:34:31.354,-10.186523,0.779297,0.716797,0.041504,-0.009521,-0.003174,0.,0.,0.,-0.053467,0.006348,0.065186,0.535156,250,116,157,145
69.454,15:34:31.454,-9.511719,-0.650391,-0.141602,0.04248,0.083008,0.047852,0.,0.,0.,-0.044922,0.006104,0.065918,0.539062,247,102,158,146
69.554,15:34:31.554,-9.511719,-0.650391,-0.141602,0.04248,0.083008,0.047852,0.,0.,0.,-0.044922,0.006104,0.065918,0.539062,247,102,158,146
69.654,15:34:31.654,-9.540039,-0.537109,-0.451172,0.027588,0.047852,-0.014893,0.,0.,0.,-0.037842,0.009277,0.062744,0.542969,223,94,159,148
69.754,15:34:31.754,-9.540039,-0.080078,1.244141,0.003174,0.049805,0.637451,0.,0.,0.,-0.02832,0.023926,0.064209,0.546875,188,105,160,149
69.854,15:34:31.854,-9.922852,-1.102539,-0.070312,0.027588,0.107422,0.067871,0.,0.,0.,-0.017578,0.084473,0.066162,0.542969,185,113,160,151
69.954,15:34:31.954,-9.922852,-1.102539,-0.070312,0.027588,0.107422,0.067871,0.,0.,0.,-0.017578,0.084473,0.066162,0.542969,185,113,160,151
70.054,15:34:32.054,-9.922852,-1.102539,-0.070312,0.027588,0.107422,0.067871,0.,0.,0.,-0.017578,0.084473,0.066162,0.542969,185,113,160,151
70.154,15:34:32.154,-9.922852,-1.102539,-0.070312,0.027588,0.107422,0.067871,0.,0.,0.,-0.017578,0.084473,0.066162,0.542969,185,113,160,151
70.254,15:34:32.254,-9.922852,-1.102539,-0.070312,0.027588,0.107422,0.067871,0.,0.,0.,-0.017578,0.084473,0.066162,0.542969,185,113,160,151
70.354,15:34:32.354,-9.922852,-1.102539,-0.070312,0.027588,0.107422,0.067871,0.,0.,0.,-0.017578,0.084473,0.066162,0.542969,185,113,160,151
70.454,15:34:32.454,-9.363281,0.351562,-0.831055,-0.008301,0.066895,0.09668,0.,0.,0.,0.027344,-0.003906,0.058594,0.578125,185,111,161,169
70.554,15:34:32.554,-10.186523,0.636719,0.34668,0.00415,0.005127,0.089355,0.,0.,0.,0.038818,0.004395,0.05542,0.570312,162,111,160,175
70.654,15:34:32.654,-10.186523,0.636719,0.34668,0.00415,0.005127,0.089355,0.,0.,0.,0.038818,0.004395,0.05542,0.570312,162,111,160,175
70.754,15:34:32.754,-9.597656,-0.731445,-0.864258,-0.022217,0.065918,-0.003174,0.,0.,0.,0.045166,0.010498,0.055664,0.574219,177,110,161,180
70.854,15:34:32.854,-9.597656,-0.731445,-0.864258,-0.022217,0.065918,-0.003174,0.,0.,0.,0.045166,0.010498,0.055664,0.574219,177,110,161,180
70.954,15:34:32.954,-9.693359,-0.108398,0.250977,-0.043457,0.010498,-0.024414,0.,0.,0.,0.050537,0.014648,0.055176,0.570312,201,110,162,183
71.054,15:34:33.054,-9.578125,0.066406,0.046875,0.015869,-0.003174,-0.014893,0.,0.,0.,0.062988,0.009766,0.058594,0.566406,201,110,162,190
71.154,15:34:33.154,-9.746094,1.087891,0.459961,0.001953,-0.012695,-0.025391,0.,0.,0.,0.068359,0.01123,0.057861,0.566406,191,110,162,193
71.254,15:34:33.254,-9.635742,-1.768555,-0.72168,-0.028564,0.02002,-0.04248,0.,0.,0.,0.073242,0.009521,0.057861,0.558594,185,110,161,197
71.354,15:34:33.354,-9.851562,-2.542969,0.033203,-0.075439,0.030762,0.013672,0.,0.,0.,0.076416,0.008301,0.058105,0.546875,182,111,161,200
71.454,15:34:33.454,-10.344727,-0.613281,-0.592773,-0.060547,0.060547,0.054199,0.,0.,0.,0.078125,0.003662,0.056396,0.550781,181,111,160,205
71.554,15:34:33.554,-9.597656,-0.736328,-0.512695,-0.051025,-0.027588,-0.075439,0.,0.,0.,0.080322,-0.000244,0.054932,0.566406,179,112,158,209
71.654,15:34:33.654,-9.142578,-1.15918,0.094727,-0.038086,-0.092529,-0.114746,0.,0.,0.,0.08252,-0.000977,0.051758,0.574219,178,112,158,212
71.754,15:34:33.754,-9.142578,-1.15918,0.094727,-0.038086,-0.092529,-0.114746,0.,0.,0.,0.08252,-0.000977,0.051758,0.574219,178,112,158,212
71.854,15:34:33.854,-9.84668,-0.379883,0.451172,-0.038086,0.088135,-0.022217,0.,0.,0.,0.10083,-0.004395,0.045166,0.550781,162,116,153,232
71.954,15:34:33.954,-9.818359,-1.083008,-0.293945,-0.024414,0.010498,-0.087158,0.,0.,0.,0.102051,-0.011719,0.044189,0.546875,161,116,152,235
72.054,15:34:34.054,-10.033203,1.087891,0.72168,0.000977,-0.022217,0.001953,0.,0.,0.,0.107422,-0.019287,0.044678,0.539062,155,114,152,237
72.154,15:34:34.154,-9.640625,0.460938,-0.212891,-0.025391,-0.023193,0.070068,0.,0.,0.,0.111572,-0.015625,0.043213,0.53125,150,113,152,240
72.254,15:34:34.254,-10.009766,-1.130859,-0.232422,-0.057373,-0.012695,0.028564,0.,0.,0.,0.115479,-0.009277,0.042969,0.527344,147,113,152,243
72.354,15:34:34.354,-10.02832,-0.78418,0.484375,-0.05835,0.036133,0.039307,0.,0.,0.,0.11792,-0.006348,0.04126,0.523438,144,114,149,247
72.454,15:34:34.454,-10.02832,-0.78418,0.484375,-0.05835,0.036133,0.039307,0.,0.,0.,0.11792,-0.006348,0.04126,0.523438,144,114,149,247
72.554,15:34:34.554,-10.206055,1.079102,0.574219,-0.018066,-0.006348,0.000977,0.,0.,0.,0.119629,0.001709,0.041992,0.515625,141,114,145,250
72.654,15:34:34.654,-10.206055,1.079102,0.574219,-0.018066,-0.006348,0.000977,0.,0.,0.,0.119629,0.001709,0.041992,0.515625,141,114,145,250
72.754,15:34:34.754,-9.875,-0.446289,-0.033203,-0.05835,0.014893,-0.086182,0.,0.,0.,0.121338,0.003418,0.043701,0.511719,138,114,155,253
72.854,15:34:34.854,-9.875,-0.446289,-0.033203,-0.05835,0.014893,-0.086182,0.,0.,0.,0.121338,0.003418,0.043701,0.511719,138,114,155,253
72.954,15:34:34.954,-9.836914,0.717773,-0.526367,-0.044678,0.055176,-0.086182,0.,0.,0.,0.122314,0.,0.045166,0.515625,135,113,170,255
73.054,15:34:35.054,-9.760742,1.168945,0.916016,-0.061523,-0.011475,0.130859,0.,0.,0.,0.123291,-0.000732,0.047119,0.527344,133,113,162,258
73.154,15:34:35.154,-10.095703,-0.34668,0.583984,-0.039307,0.026367,0.056396,0.,0.,0.,0.124512,-0.000488,0.049805,0.53125,130,113,152,259
73.254,15:34:35.254,-9.549805,-1.268555,-0.826172,-0.073242,0.120117,-0.119141,0.,0.,0.,0.126221,0.00293,0.051514,0.535156,128,114,152,261
73.354,15:34:35.354,-9.248047,2.029297,-0.275391,-0.010498,-0.044678,-0.047852,0.,0.,0.,0.126709,0.002441,0.051025,0.539062,126,114,152,263
73.454,15:34:35.454,-9.391602,-1.720703,-0.137695,-0.045654,0.011475,-0.02002,0.,0.,0.,0.128174,0.,0.054932,0.546875,125,115,152,266
73.554,15:34:35.554,-9.31543,0.974609,0.289062,-0.052979,0.032959,0.063721,0.,0.,0.,0.128906,-0.001709,0.053711,0.550781,125,115,153,267
73.654,15:34:35.654,-9.832031,0.779297,1.063477,-0.083984,0.052002,-0.063721,0.,0.,0.,0.127441,-0.003662,0.049561,0.554688,124,116,152,269
73.754,15:34:35.754,-9.736328,-0.351562,-0.664062,-0.093506,-0.070068,-0.11792,0.,0.,0.,0.125977,-0.00293,0.04834,0.554688,121,116,152,270
73.854,15:34:35.854,-9.511719,1.054688,-0.146484,-0.076416,-0.060547,0.027588,0.,0.,0.,0.124268,-0.001709,0.047607,0.554688,120,116,152,271
73.954,15:34:35.954,-9.578125,1.535156,0.037109,-0.047852,0.138184,0.09668,0.,0.,0.,0.124756,-0.005371,0.043945,0.554688,120,116,152,272
74.054,15:34:36.054,-9.818359,0.398438,0.075195,-0.025391,0.009521,-0.069092,0.,0.,0.,0.128418,-0.002197,0.039307,0.558594,116,118,147,277
74.154,15:34:36.154,-9.822266,2.352539,1.462891,0.011475,0.016846,-0.039307,0.,0.,0.,0.131348,-0.000488,0.031738,0.554688,115,118,146,278
74.254,15:34:36.254,-9.803711,-0.199219,0.113281,-0.003174,-0.130859,0.022217,0.,0.,0.,0.134766,-0.002197,0.032715,0.554688,113,119,144,280
74.354,15:34:36.354,-9.678711,0.916992,-0.925781,-0.045654,0.107422,0.009521,0.,0.,0.,0.137207,-0.004395,0.029053,0.554688,111,120,144,280
74.454,15:34:36.454,-9.291016,1.701172,0.275391,-0.006348,-0.062744,-0.121094,0.,0.,0.,0.140869,-0.005127,0.022217,0.558594,110,121,142,282
74.554,15:34:36.554,-9.291016,1.701172,0.275391,-0.006348,-0.062744,-0.121094,0.,0.,0.,0.140869,-0.005127,0.022217,0.558594,110,121,142,282
74.654,15:34:36.654,-9.808594,0.02832,-0.056641,-0.019043,-0.089355,-0.04248,0.,0.,0.,0.143799,-0.003174,0.020508,0.5625,110,121,142,282
74.754,15:34:36.754,-9.808594,0.02832,-0.056641,-0.019043,-0.089355,-0.04248,0.,0.,0.,0.143799,-0.003174,0.020508,0.5625,110,121,142,282
74.854,15:34:36.854,-9.655273,0.051758,-0.317383,-0.075439,0.048828,0.024414,0.,0.,0.,0.147949,-0.003418,0.022217,0.5625,109,122,140,282
74.954,15:34:36.954,-9.655273,0.051758,-0.317383,-0.075439,0.048828,0.024414,0.,0.,0.,0.147949,-0.003418,0.022217,0.5625,109,122,140,282
75.054,15:34:37.054,-9.947266,-0.275391,-0.393555,-0.069092,0.083008,0.102051,0.,0.,0.,0.14917,-0.007812,0.030029,0.5625,109,123,139,281
75.154,15:34:37.154,-9.96582,0.208984,0.536133,-0.060547,-0.025391,-0.091309,0.,0.,0.,0.153809,-0.005127,0.03833,0.570312,111,126,137,279
75.254,15:34:37.254,-9.856445,-0.998047,-0.920898,-0.045654,0.163818,0.040283,0.,0.,0.,0.15625,-0.002686,0.040771,0.570312,111,127,137,279
75.354,15:34:37.354,-9.755859,-0.327148,0.118164,-0.064697,-0.046631,0.045654,0.,0.,0.,0.156738,-0.005615,0.046387,0.570312,113,129,137,281
75.454,15:34:37.454,-9.477539,-0.161133,-0.53125,-0.067871,0.09668,-0.00415,0.,0.,0.,0.15625,-0.006104,0.05249,0.570312,113,130,137,284
75.554,15:34:37.554,-9.477539,-0.161133,-0.53125,-0.067871,0.09668,-0.00415,0.,0.,0.,0.15625,-0.006104,0.05249,0.570312,113,130,137,284
75.654,15:34:37.654,-10.009766,-0.170898,-0.194336,-0.101074,-0.049805,-0.012695,0.,0.,0.,0.147949,-0.007324,0.056885,0.566406,117,135,134,277
75.754,15:34:37.754,-10.009766,-0.170898,-0.194336,-0.101074,-0.049805,-0.012695,0.,0.,0.,0.147949,-0.007324,0.056885,0.566406,117,135,134,277
75.854,15:34:37.854,-9.353516,1.725586,0.018555,-0.052979,0.012695,0.005127,0.,0.,0.,0.144043,-0.005859,0.061279,0.5625,120,136,132,270
75.954,15:34:37.954,-9.602539,-0.874023,-0.821289,-0.091309,0.129639,-0.005127,0.,0.,0.,0.139404,-0.008057,0.066162,0.558594,122,139,132,267
76.054,15:34:38.054,-9.602539,-0.874023,-0.821289,-0.091309,0.129639,-0.005127,0.,0.,0.,0.139404,-0.008057,0.066162,0.558594,122,139,132,267
76.154,15:34:38.154,-9.333984,-0.850586,-0.113281,-0.107422,-0.026367,-0.026367,0.,0.,0.,0.133301,-0.007324,0.077148,0.558594,126,141,131,264
76.254,15:34:38.254,-9.333984,-0.850586,-0.113281,-0.107422,-0.026367,-0.026367,0.,0.,0.,0.133301,-0.007324,0.077148,0.558594,126,141,131,264
76.354,15:34:38.354,-9.333984,-0.850586,-0.113281,-0.107422,-0.026367,-0.026367,0.,0.,0.,0.133301,-0.007324,0.077148,0.558594,126,141,131,264
76.454,15:34:38.454,-9.770508,0.512695,0.602539,-0.063721,-0.04248,-0.084961,0.,0.,0.,0.119629,-0.003418,0.059326,0.550781,135,148,122,259
76.554,15:34:38.554,-9.770508,0.512695,0.602539,-0.063721,-0.04248,-0.084961,0.,0.,0.,0.119629,-0.003418,0.059326,0.550781,135,148,122,259
76.654,15:34:38.654,-10.201172,-0.227539,0.678711,-0.073242,0.013672,-0.030762,0.,0.,0.,0.117432,-0.006348,0.056396,0.535156,136,151,120,257
76.754,15:34:38.754,-10.201172,-0.227539,0.678711,-0.073242,0.013672,-0.030762,0.,0.,0.,0.117432,-0.006348,0.056396,0.535156,136,151,120,257
76.854,15:34:38.854,-9.985352,-1.117188,-0.037109,-0.052002,-0.032959,0.008301,0.,0.,0.,0.115723,-0.006836,0.057373,0.535156,137,151,119,257
76.954,15:34:38.954,-9.789062,-0.603516,-0.132812,-0.057373,0.049805,-0.05957,0.,0.,0.,0.115723,-0.007568,0.05957,0.53125,138,153,117,255
77.054,15:34:39.054,-9.789062,-0.603516,-0.132812,-0.057373,0.049805,-0.05957,0.,0.,0.,0.115723,-0.007568,0.05957,0.53125,138,153,117,255
77.154,15:34:39.154,-9.597656,0.998047,-0.579102,-0.089355,0.009521,0.041504,0.,0.,0.,0.120117,-0.008301,0.059082,0.542969,141,153,115,252
77.254,15:34:39.254,-9.678711,0.936523,0.569336,0.009521,-0.038086,-0.025391,0.,0.,0.,0.122314,-0.015137,0.05957,0.550781,142,154,114,252
77.354,15:34:39.354,-9.152344,0.636719,0.161133,-0.028564,0.007324,-0.111572,0.,0.,0.,0.124512,-0.017334,0.056641,0.554688,144,157,114,250
77.454,15:34:39.454,-9.37793,1.331055,0.023438,-0.034912,-0.033936,-0.013672,0.,0.,0.,0.126465,-0.014893,0.054688,0.554688,145,158,115,249
77.554,15:34:39.554,-9.477539,0.204102,0.066406,-0.049805,0.075439,-0.008301,0.,0.,0.,0.127441,-0.012695,0.052246,0.550781,146,161,112,247
77.654,15:34:39.654,-10.133789,0.118164,0.759766,-0.029785,-0.094482,0.027588,0.,0.,0.,0.129883,-0.00708,0.050537,0.550781,149,101,108,245
77.754,15:34:39.754,-10.133789,0.118164,0.759766,-0.029785,-0.094482,0.027588,0.,0.,0.,0.129883,-0.00708,0.050537,0.550781,149,101,108,245
77.854,15:34:39.854,-9.46875,-1.154297,-0.655273,-0.062744,0.098877,-0.214844,0.,0.,0.,0.134033,-0.016357,0.05249,0.550781,151,127,108,244
77.954,15:34:39.954,-9.980469,-1.130859,-0.459961,-0.049805,0.066895,-0.138184,0.,0.,0.,0.137451,-0.020264,0.048584,0.550781,152,167,107,244
78.054,15:34:40.054,-9.980469,-1.130859,-0.459961,-0.049805,0.066895,-0.138184,0.,0.,0.,0.137451,-0.020264,0.048584,0.550781,152,167,107,244
78.154,15:34:40.154,-9.741211,-2.048828,-0.02832,-0.00415,0.107422,-0.043457,0.,0.,0.,0.141602,-0.016602,0.056641,0.554688,155,166,107,240
78.254,15:34:40.254,-10.344727,-0.613281,0.137695,-0.010498,0.013672,0.066895,0.,0.,0.,0.145752,-0.011475,0.057617,0.554688,158,166,107,239
78.354,15:34:40.354,-9.673828,1.568359,1.519531,0.043457,-0.023193,0.076416,0.,0.,0.,0.150146,-0.007812,0.061279,0.554688,159,166,107,236
78.454,15:34:40.454,-10.057617,0.831055,0.02832,0.083984,-0.000977,0.006348,0.,0.,0.,0.156738,-0.008301,0.061523,0.554688,159,166,107,235
78.554,15:34:40.554,-9.683594,0.484375,0.204102,0.045654,0.07959,-0.098877,0.,0.,0.,0.165527,-0.007568,0.062744,0.550781,161,166,107,232
78.654,15:34:40.654,-9.818359,-0.075195,0.,0.052979,0.057373,-0.02002,0.,0.,0.,0.170898,-0.008057,0.063232,0.550781,164,169,107,230
78.754,15:34:40.754,-9.381836,0.18457,-0.431641,0.048828,-0.045654,-0.02002,0.,0.,0.,0.178711,-0.008301,0.063721,0.554688,165,171,111,228
78.854,15:34:40.854,-9.381836,0.18457,-0.431641,0.048828,-0.045654,-0.02002,0.,0.,0.,0.178711,-0.008301,0.063721,0.554688,165,171,111,228
78.954,15:34:40.954,-9.381836,0.18457,-0.431641,0.048828,-0.045654,-0.02002,0.,0.,0.,0.178711,-0.008301,0.063721,0.554688,165,171,111,228
79.054,15:34:41.054,-9.381836,0.18457,-0.431641,0.048828,-0.045654,-0.02002,0.,0.,0.,0.178711,-0.008301,0.063721,0.554688,165,171,111,228
79.154,15:34:41.154,-9.501953,0.066406,0.488281,0.027588,0.005127,-0.169189,0.,0.,0.,0.214844,0.005127,0.062988,0.5625,166,168,111,218
79.254,15:34:41.254,-9.501953,0.066406,0.488281,0.027588,0.005127,-0.169189,0.,0.,0.,0.214844,0.005127,0.062988,0.5625,166,168,111,218
79.354,15:34:41.354,-9.501953,0.066406,0.488281,0.027588,0.005127,-0.169189,0.,0.,0.,0.214844,0.005127,0.062988,0.5625,166,168,111,218
79.454,15:34:41.454,-9.617188,0.68457,-0.484375,0.023193,0.014893,0.116943,0.,0.,0.,0.227051,-0.010498,0.061768,0.570312,167,169,111,216
79.554,15:34:41.554,-9.554688,0.835938,0.94043,0.022217,0.022217,-0.048828,0.,0.,0.,0.235352,-0.002686,0.061035,0.570312,171,171,111,215
79.654,15:34:41.654,-9.866211,-0.603516,-0.166016,-0.019043,0.003174,-0.073242,0.,0.,0.,0.243164,-0.000488,0.059082,0.570312,177,169,112,215
79.754,15:34:41.754,-9.458984,-0.013672,0.413086,0.033936,0.003174,0.041504,0.,0.,0.,0.250732,-0.002686,0.058105,0.570312,176,169,112,215
79.854,15:34:41.854,-9.774414,0.499023,-0.084961,0.04248,-0.013672,0.031738,0.,0.,0.,0.259033,-0.002686,0.055664,0.574219,176,169,112,213
79.954,15:34:41.954,-9.774414,0.499023,-0.084961,0.04248,-0.013672,0.031738,0.,0.,0.,0.259033,-0.002686,0.055664,0.574219,176,169,112,213
80.054,15:34:42.054,-9.774414,0.499023,-0.084961,0.04248,-0.013672,0.031738,0.,0.,0.,0.259033,-0.002686,0.055664,0.574219,176,169,112,213
80.154,15:34:42.154,-9.774414,0.499023,-0.084961,0.04248,-0.013672,0.031738,0.,0.,0.,0.259033,-0.002686,0.055664,0.574219,176,169,112,213
80.254,15:34:42.254,-9.774414,0.499023,-0.084961,0.04248,-0.013672,0.031738,0.,0.,0.,0.259033,-0.002686,0.055664,0.574219,176,169,112,213
80.354,15:34:42.354,-9.774414,0.499023,-0.084961,0.04248,-0.013672,0.031738,0.,0.,0.,0.259033,-0.002686,0.055664,0.574219,176,169,112,213
80.454,15:34:42.454,-9.300781,1.125977,-0.141602,0.016846,0.000977,0.006348,0.,0.,0.,0.333984,-0.003906,0.067383,0.578125,181,166,114,207
80.554,15:34:42.554,-9.300781,1.125977,-0.141602,0.016846,0.000977,0.006348,0.,0.,0.,0.333984,-0.003906,0.067383,0.578125,181,166,114,207
80.654,15:34:42.654,-9.34375,0.72168,0.707031,-0.015869,0.075439,-0.008301,0.,0.,0.,0.339111,-0.004883,0.067139,0.574219,181,167,114,205
80.754,15:34:42.754,-9.454102,0.323242,-0.484375,-0.000977,0.05835,0.008301,0.,0.,0.,0.350098,-0.003662,0.067627,0.570312,164,166,114,205
80.854,15:34:42.854,-9.574219,-0.327148,-0.522461,-0.019043,0.001953,0.064697,0.,0.,0.,0.359619,-0.002441,0.067383,0.574219,186,166,113,205
80.954,15:34:42.954,-9.574219,-0.327148,-0.522461,-0.019043,0.001953,0.064697,0.,0.,0.,0.359619,-0.002441,0.067383,0.574219,186,166,113,205
81.054,15:34:43.054,-9.40625,1.834961,-0.417969,-0.003174,0.001953,-0.005127,0.,0.,0.,0.363525,-0.004639,0.067139,0.574219,183,166,113,206
81.154,15:34:43.154,-9.40625,1.834961,-0.417969,-0.003174,0.001953,-0.005127,0.,0.,0.,0.363525,-0.004639,0.067139,0.574219,183,166,113,206
81.254,15:34:43.254,-9.477539,0.056641,-0.212891,-0.038086,0.009521,-0.131836,0.,0.,0.,0.367432,-0.004883,0.066406,0.578125,181,166,113,206
81.354,15:34:43.354,-9.477539,0.056641,-0.212891,-0.038086,0.009521,-0.131836,0.,0.,0.,0.367432,-0.004883,0.066406,0.578125,181,166,113,206
81.454,15:34:43.454,-9.683594,-0.499023,-0.801758,-0.013672,0.018066,0.022217,0.,0.,0.,0.376465,-0.010986,0.067871,0.585938,189,165,113,208
81.554,15:34:43.554,-9.373047,1.454102,0.037109,0.001953,0.007324,0.031738,0.,0.,0.,0.385498,-0.009033,0.068359,0.585938,177,165,113,210
81.654,15:34:43.654,-9.789062,-0.422852,0.02832,-0.015869,0.030762,-0.025391,0.,0.,0.,0.388916,-0.008057,0.068115,0.582031,174,165,113,212
81.754,15:34:43.754,-10.042969,0.40332,0.40332,0.007324,0.003174,-0.036133,0.,0.,0.,0.394043,-0.007568,0.068115,0.578125,173,165,93,213
81.854,15:34:43.854,-10.042969,0.40332,0.40332,0.007324,0.003174,-0.036133,0.,0.,0.,0.394043,-0.007568,0.068115,0.578125,173,165,93,213
81.954,15:34:43.954,-9.229492,0.227539,-0.768555,0.013672,0.043457,-0.011475,0.,0.,0.,0.398438,-0.00708,0.067139,0.578125,171,163,64,215
82.054,15:34:44.054,-9.229492,0.227539,-0.768555,0.013672,0.043457,-0.011475,0.,0.,0.,0.398438,-0.00708,0.067139,0.578125,171,163,64,215
82.154,15:34:44.154,-10.038086,-0.318359,0.061523,0.005127,0.012695,-1.3396,0.,0.,0.,0.4021,-0.03125,0.065918,0.578125,170,160,84,218
82.254,15:34:44.254,-9.961914,-1.121094,0.118164,-0.008301,-0.016846,-0.199951,0.,0.,0.,0.398438,-0.151611,0.069092,0.582031,167,158,114,221
82.354,15:34:44.354,-9.961914,-1.121094,0.118164,-0.008301,-0.016846,-0.199951,0.,0.,0.,0.398438,-0.151611,0.069092,0.582031,167,158,114,221
82.454,15:34:44.454,-9.961914,-1.121094,0.118164,-0.008301,-0.016846,-0.199951,0.,0.,0.,0.398438,-0.151611,0.069092,0.582031,167,158,114,221
82.554,15:34:44.554,-10.148438,-0.161133,0.194336,0.031738,0.038086,0.322266,0.,0.,0.,0.425537,0.084473,0.060059,0.5625,160,95,122,231
82.654,15:34:44.654,-10.148438,-0.161133,0.194336,0.031738,0.038086,0.322266,0.,0.,0.,0.425537,0.084473,0.060059,0.5625,160,95,122,231
82.754,15:34:44.754,-10.0625,0.24707,0.018555,0.127686,0.032959,1.697266,0.,0.,0.,0.441406,0.153809,0.061768,0.5625,159,145,124,234
82.854,15:34:44.854,-10.018555,-0.555664,-0.108398,0.112793,-0.006348,0.320312,0.,0.,0.,0.461426,0.210938,0.061768,0.566406,156,141,129,235
82.954,15:34:44.954,-9.9375,0.056641,0.075195,0.175537,-0.120117,-2.758301,0.,0.,0.,0.474365,0.045654,0.05957,0.574219,155,135,139,238
83.054,15:34:45.054,-9.119141,-0.118164,-0.731445,0.000977,0.07959,-1.578125,0.,0.,0.,0.484375,-0.057861,0.061768,0.585938,153,133,154,240
83.154,15:34:45.154,-9.43457,0.270508,-0.041992,0.009521,0.0979,0.502197,0.,0.,0.,0.491455,-0.093262,0.060547,0.609375,151,133,143,245
83.254,15:34:45.254,-9.43457,0.270508,-0.041992,0.009521,0.0979,0.502197,0.,0.,0.,0.491455,-0.093262,0.060547,0.609375,151,133,143,245
83.354,15:34:45.354,-9.43457,0.270508,-0.041992,0.009521,0.0979,0.502197,0.,0.,0.,0.491455,-0.093262,0.060547,0.609375,151,133,143,245
83.454,15:34:45.454,-9.793945,0.289062,-0.123047,-0.02124,0.038086,0.008301,0.,0.,0.,0.50708,-0.026367,0.059082,0.628906,137,137,139,185
83.554,15:34:45.554,-9.793945,0.289062,-0.123047,-0.02124,0.038086,0.008301,0.,0.,0.,0.50708,-0.026367,0.059082,0.628906,137,137,139,185
83.654,15:34:45.654,-9.96582,-0.118164,0.108398,-0.005127,-0.012695,0.115967,0.,0.,0.,0.513428,-0.018799,0.058594,0.621094,135,139,138,188
83.754,15:34:45.754,-9.96582,-0.118164,0.108398,-0.005127,-0.012695,0.115967,0.,0.,0.,0.513428,-0.018799,0.058594,0.621094,135,139,138,188
83.854,15:34:45.854,-9.554688,0.336914,1.201172,-0.009521,-0.005127,0.067871,0.,0.,0.,0.519775,-0.015137,0.057617,0.609375,132,138,138,207
83.954,15:34:45.954,-9.554688,0.336914,1.201172,-0.009521,-0.005127,0.067871,0.,0.,0.,0.519775,-0.015137,0.057617,0.609375,132,138,138,207
84.054,15:34:46.054,-9.990234,-0.413086,-0.379883,-0.023193,0.045654,-0.045654,0.,0.,0.,0.52417,-0.012451,0.057129,0.597656,130,138,138,258
84.154,15:34:46.154,-9.818359,-0.02832,-0.859375,-0.006348,-0.041504,-0.038086,0.,0.,0.,0.529297,-0.008789,0.059082,0.59375,128,134,139,277
84.254,15:34:46.254,-9.286133,0.313477,0.265625,-0.043457,0.04248,-0.005127,0.,0.,0.,0.534424,-0.009766,0.061035,0.589844,124,132,140,280
84.354,15:34:46.354,-9.454102,0.336914,-0.459961,-0.013672,0.015869,0.019043,0.,0.,0.,0.538086,-0.010742,0.0625,0.582031,120,130,141,251
84.454,15:34:46.454,-9.358398,1.112305,0.34668,0.038086,0.062744,-0.025391,0.,0.,0.,0.543457,-0.01123,0.061035,0.582031,101,130,142,208
84.554,15:34:46.554,-9.693359,0.151367,-0.246094,-0.014893,-0.078613,-0.027588,0.,0.,0.,0.546631,-0.01123,0.058838,0.578125,73,130,143,212
84.654,15:34:46.654,-9.348633,-0.537109,-0.569336,-0.029785,-1.286621,0.016846,0.,0.,0.,0.552979,-0.007324,0.02832,0.574219,87,131,145,218
84.754,15:34:46.754,-9.330078,-0.341797,0.084961,-0.030762,-0.155273,-0.055176,0.,0.,0.,0.557617,-0.007324,-0.089111,0.570312,109,126,147,218
84.854,15:34:46.854,-10.918945,1.092773,-1.129883,-0.055176,1.276855,-0.026367,0.,0.,0.,0.560547,-0.006836,-0.077393,0.578125,105,124,149,218
84.954,15:34:46.954,-9.233398,-0.080078,-0.232422,-0.11792,0.022217,0.0979,0.,0.,0.,0.563721,-0.004639,0.036621,0.578125,100,121,150,215
85.054,15:34:47.054,-9.813477,1.083008,1.652344,-0.037109,0.275391,0.036133,0.,0.,0.,0.564941,-0.007568,0.070801,0.5625,98,118,150,212
85.154,15:34:47.154,-9.813477,1.083008,1.652344,-0.037109,0.275391,0.036133,0.,0.,0.,0.564941,-0.007568,0.070801,0.5625,98,118,150,212
85.254,15:34:47.254,-9.813477,1.083008,1.652344,-0.037109,0.275391,0.036133,0.,0.,0.,0.564941,-0.007568,0.070801,0.5625,98,118,150,212
85.354,15:34:47.354,-9.176758,-0.779297,0.246094,-0.074463,-0.038086,0.039307,0.,0.,0.,0.574463,0.007812,0.034668,0.570312,92,108,144,235
85.454,15:34:47.454,-9.176758,0.003906,0.141602,-0.072266,0.07959,0.105225,0.,0.,0.,0.578125,0.012207,0.024902,0.578125,89,107,111,237
85.554,15:34:47.554,-9.698242,-0.802734,0.232422,-0.090332,-0.045654,-1.14917,0.,0.,0.,0.584961,0.005859,0.02002,0.574219,85,106,145,240
85.654,15:34:47.654,-9.698242,-0.802734,0.232422,-0.090332,-0.045654,-1.14917,0.,0.,0.,0.584961,0.005859,0.02002,0.574219,85,106,145,240
85.754,15:34:47.754,-9.358398,-0.151367,-0.464844,-0.052002,0.02124,-0.153076,0.,0.,0.,0.583496,-0.090088,0.018799,0.578125,85,100,157,240
85.854,15:34:47.854,-9.368164,0.698242,-0.151367,-0.077637,0.124512,2.144287,0.,0.,0.,0.580566,-0.06958,0.019531,0.585938,85,99,157,242
85.954,15:34:47.954,-9.822266,0.222656,0.189453,-0.000977,0.007324,0.21167,0.,0.,0.,0.583984,0.064453,0.021729,0.574219,85,99,156,243
86.054,15:34:48.054,-10.392578,0.151367,0.061523,-0.037109,0.142578,-0.740479,0.,0.,0.,0.593018,0.110352,0.030273,0.558594,85,98,155,244
86.154,15:34:48.154,-9.917969,-0.166016,0.227539,-0.010498,0.125488,0.164795,0.,0.,0.,0.600586,0.082764,0.040039,0.550781,85,93,156,242
86.254,15:34:48.254,-9.832031,1.192383,-1.048828,0.029785,0.154297,-0.088135,0.,0.,0.,0.605469,0.050537,0.048096,0.542969,85,92,161,241
86.354,15:34:48.354,-10.004883,-2.191406,-0.123047,-0.005127,0.02002,-0.253174,0.,0.,0.,0.611572,0.044434,0.050537,0.546875,86,92,163,241
86.454,15:34:48.454,-9.439453,0.494141,-0.498047,0.016846,0.028564,-0.109375,0.,0.,0.,0.618652,0.037842,0.057617,0.554688,87,92,163,241
86.554,15:34:48.554,-9.330078,-0.62207,0.,0.009521,0.074463,0.093506,0.,0.,0.,0.623779,0.030273,0.05835,0.558594,88,94,150,241
86.654,15:34:48.654,-9.678711,-0.018555,0.408203,-0.069092,0.103027,-0.429932,0.,0.,0.,0.633301,-0.003174,0.063477,0.5625,91,107,155,241
86.754,15:34:48.754,-9.678711,-0.018555,0.408203,-0.069092,0.103027,-0.429932,0.,0.,0.,0.633301,-0.003174,0.063477,0.5625,91,107,155,241
86.854,15:34:48.854,-9.894531,-0.370117,0.455078,-0.07959,0.009521,-0.049805,0.,0.,0.,0.633789,-0.032227,0.058105,0.570312,92,110,152,235
86.954,15:34:48.954,-9.894531,-0.370117,0.455078,-0.07959,0.009521,-0.049805,0.,0.,0.,0.633789,-0.032227,0.058105,0.570312,92,110,152,235
87.054,15:34:49.054,-9.439453,0.998047,0.289062,-0.025391,-0.047852,-0.057373,0.,0.,0.,0.632812,-0.04834,0.058838,0.570312,92,112,148,231
87.154,15:34:49.154,-9.439453,0.998047,0.289062,-0.025391,-0.047852,-0.057373,0.,0.,0.,0.632812,-0.04834,0.058838,0.570312,92,112,148,231
87.254,15:34:49.254,-9.181641,1.240234,-0.298828,-0.02002,0.047852,-0.015869,0.,0.,0.,0.577393,0.003418,0.018311,0.535156,165,115,176,233
87.354,15:34:49.354,-9.181641,1.240234,-0.298828,-0.02002,0.047852,-0.015869,0.,0.,0.,0.577393,0.003418,0.018311,0.535156,165,115,176,233
87.454,15:34:49.454,-9.746094,0.741211,-0.417969,-0.009521,-0.011475,0.180908,0.,0.,0.,0.580566,0.008301,0.022949,0.535156,169,112,178,230
87.554,15:34:49.554,-9.746094,0.741211,-0.417969,-0.009521,-0.011475,0.180908,0.,0.,0.,0.580566,0.008301,0.022949,0.535156,169,112,178,230
87.654,15:34:49.654,-9.703125,-1.458984,-0.070312,-0.032959,0.11377,0.015869,0.,0.,0.,0.584961,0.015137,0.02417,0.53125,172,111,169,229
87.754,15:34:49.754,-9.703125,-1.458984,-0.070312,-0.032959,0.11377,0.015869,0.,0.,0.,0.584961,0.015137,0.02417,0.53125,172,111,169,229
87.854,15:34:49.854,-10.066406,1.045898,-0.003906,0.02124,-0.032959,0.023193,0.,0.,0.,0.589355,0.022217,0.025879,0.527344,175,108,168,220
87.954,15:34:49.954,-10.066406,1.045898,-0.003906,0.02124,-0.032959,0.023193,0.,0.,0.,0.589355,0.022217,0.025879,0.527344,175,108,168,220
88.054,15:34:50.054,-9.439453,-0.926758,-0.12793,-0.038086,0.005127,0.005127,0.,0.,0.,0.592529,0.029053,0.030029,0.523438,180,108,171,215
88.154,15:34:50.154,-9.439453,-0.926758,-0.12793,-0.038086,0.005127,0.005127,0.,0.,0.,0.592529,0.029053,0.030029,0.523438,180,108,171,215
88.254,15:34:50.254,-9.96582,0.232422,-0.132812,0.003174,0.0979,0.062744,0.,0.,0.,0.598633,0.030029,0.029541,0.515625,184,108,171,209
88.354,15:34:50.354,-9.96582,0.232422,-0.132812,0.003174,0.0979,0.062744,0.,0.,0.,0.598633,0.030029,0.029541,0.515625,184,108,171,209
88.454,15:34:50.454,-9.827148,0.598633,0.446289,0.022217,-0.013672,0.024414,0.,0.,0.,0.605469,0.029541,0.029297,0.507812,184,107,170,206
88.554,15:34:50.554,-9.827148,0.598633,0.446289,0.022217,-0.013672,0.024414,0.,0.,0.,0.605469,0.029541,0.029297,0.507812,184,107,170,206
88.654,15:34:50.654,-9.827148,0.598633,0.446289,0.022217,-0.013672,0.024414,0.,0.,0.,0.605469,0.029541,0.029297,0.507812,184,107,170,206
88.754,15:34:50.754,-9.712891,0.237305,-0.355469,0.027588,0.013672,-0.024414,0.,0.,0.,0.640869,0.008057,0.031982,0.527344,215,107,166,176
88.854,15:34:50.854,-9.592773,0.161133,-0.55957,0.006348,0.062744,-0.043457,0.,0.,0.,0.645996,0.009766,0.03418,0.535156,189,109,163,172
88.954,15:34:50.954,-9.650391,0.137695,-0.322266,0.026367,0.016846,-0.028564,0.,0.,0.,0.650146,0.010254,0.036865,0.535156,175,112,162,164
