Time,UTC,FINKEN_SENSOR_MODEL:acceleration_z,FINKEN_SENSOR_MODEL:acceleration_y,FINKEN_SENSOR_MODEL:acceleration_x,FINKEN_SENSOR_MODEL:velocity_yaw,FINKEN_SENSOR_MODEL:velocity_roll,FINKEN_SENSOR_MODEL:velocity_pitch,FINKEN_SENSOR_MODEL:velocity_z,FINKEN_SENSOR_MODEL:velocity_y,FINKEN_SENSOR_MODEL:velocity_x,FINKEN_SENSOR_MODEL:pos_yaw,FINKEN_SENSOR_MODEL:pos_roll,FINKEN_SENSOR_MODEL:pos_pitch,FINKEN_SENSOR_MODEL:pos_z,FINKEN_SENSOR_MODEL:distance_d_back,FINKEN_SENSOR_MODEL:distance_d_left,FINKEN_SENSOR_MODEL:distance_d_rigth,FINKEN_SENSOR_MODEL:distance_d_front
1.432,14:52:30.432,-9.861328,0.113281,0.02832,-0.013672,0.009521,-0.027588,0.,0.,0.,2.782959,-0.01001,0.044189,0.238281,102,44,51,101
1.532,14:52:30.532,-9.875,0.108398,0.061523,-0.011475,0.012695,-0.024414,0.,0.,0.,2.782959,-0.01001,0.044189,0.238281,102,44,51,101
1.632,14:52:30.632,-9.875,0.108398,0.061523,-0.011475,0.012695,-0.024414,0.,0.,0.,2.782959,-0.01001,0.044189,0.238281,102,44,51,101
1.732,14:52:30.732,-9.922852,0.118164,-0.02832,-0.011475,0.012695,-0.027588,0.,0.,0.,2.782959,-0.01001,0.044434,0.238281,102,45,52,101
1.832,14:52:30.832,-9.899414,0.066406,0.037109,-0.008301,0.009521,-0.027588,0.,0.,0.,2.782959,-0.01001,0.044434,0.238281,102,45,52,101
1.932,14:52:30.932,-9.808594,0.071289,0.070312,-0.009521,0.013672,-0.027588,0.,0.,0.,2.782959,-0.01001,0.044434,0.238281,102,45,52,101
2.032,14:52:31.032,-9.875,0.056641,0.099609,-0.011475,0.013672,-0.027588,0.,0.,0.,2.782959,-0.01001,0.044434,0.238281,102,45,52,101
2.132,14:52:31.132,-9.922852,0.166016,0.033203,-0.013672,0.010498,-0.029785,0.,0.,0.,2.783203,-0.01001,0.044434,0.238281,102,45,52,101
2.232,14:52:31.232,-9.957031,0.051758,0.099609,-0.009521,0.014893,-0.026367,0.,0.,0.,2.783203,-0.009766,0.044434,0.238281,102,45,52,100
2.332,14:52:31.332,-9.870117,0.132812,0.046875,-0.012695,0.012695,-0.028564,0.,0.,0.,2.783203,-0.009766,0.044434,0.238281,102,45,52,100
2.432,14:52:31.432,-9.875,0.146484,0.023438,-0.011475,0.013672,-0.028564,0.,0.,0.,2.783203,-0.009766,0.044434,0.238281,102,45,52,100
2.532,14:52:31.532,-9.866211,0.123047,0.013672,-0.008301,0.013672,-0.024414,0.,0.,0.,2.783447,-0.009766,0.044434,0.238281,102,45,51,100
2.632,14:52:31.632,-9.832031,0.194336,0.099609,-0.011475,0.009521,-0.027588,0.,0.,0.,2.783447,-0.009766,0.044434,0.238281,102,45,51,100
2.732,14:52:31.732,-9.832031,0.194336,0.099609,-0.011475,0.009521,-0.027588,0.,0.,0.,2.783447,-0.009766,0.044434,0.238281,102,45,51,100
2.832,14:52:31.832,-9.851562,0.018555,0.066406,-0.011475,0.007324,-0.026367,0.,0.,0.,2.783447,-0.009766,0.044678,0.238281,102,45,52,101
2.932,14:52:31.932,-9.884766,0.104492,0.066406,-0.010498,0.011475,-0.025391,0.,0.,0.,2.783691,-0.009766,0.044434,0.238281,102,45,51,101
3.032,14:52:32.032,-9.884766,0.104492,0.066406,-0.010498,0.011475,-0.025391,0.,0.,0.,2.783691,-0.009766,0.044434,0.238281,102,45,51,101
3.132,14:52:32.132,-9.798828,0.094727,0.056641,-0.010498,0.010498,-0.026367,0.,0.,0.,2.783691,-0.009766,0.044434,0.238281,102,44,51,100
3.232,14:52:32.232,-9.798828,0.094727,0.056641,-0.010498,0.010498,-0.026367,0.,0.,0.,2.783691,-0.009766,0.044434,0.238281,102,44,51,100
3.332,14:52:32.332,-9.798828,0.094727,0.056641,-0.010498,0.010498,-0.026367,0.,0.,0.,2.783691,-0.009766,0.044434,0.238281,102,44,51,100
3.432,14:52:32.432,-9.798828,0.094727,0.056641,-0.010498,0.010498,-0.026367,0.,0.,0.,2.783691,-0.009766,0.044434,0.238281,102,44,51,100
3.532,14:52:32.532,-9.914062,0.118164,-0.070312,-0.011475,0.010498,-0.027588,0.,0.,0.,2.783691,-0.009766,0.044434,0.238281,102,44,51,100
3.632,14:52:32.632,-9.914062,0.118164,-0.070312,-0.011475,0.010498,-0.027588,0.,0.,0.,2.783691,-0.009766,0.044434,0.238281,102,44,51,100
3.732,14:52:32.732,-9.832031,0.094727,0.02832,-0.011475,0.012695,-0.027588,0.,0.,0.,2.783691,-0.009766,0.044434,0.238281,102,44,51,100
3.832,14:52:32.832,-9.832031,0.094727,0.02832,-0.011475,0.012695,-0.027588,0.,0.,0.,2.783691,-0.009766,0.044434,0.238281,102,44,51,100
3.932,14:52:32.932,-9.793945,0.123047,-0.003906,-0.010498,0.011475,-0.026367,0.,0.,0.,2.783936,-0.009766,0.044434,0.238281,102,45,51,100
4.032,14:52:33.032,-9.774414,0.108398,0.037109,-0.008301,0.009521,-0.027588,0.,0.,0.,2.78418,-0.009766,0.044434,0.238281,102,45,51,100
4.132,14:52:33.132,-9.774414,0.108398,0.037109,-0.008301,0.009521,-0.027588,0.,0.,0.,2.78418,-0.009766,0.044434,0.238281,102,45,51,100
4.232,14:52:33.232,-9.856445,0.108398,0.051758,-0.009521,0.013672,-0.028564,0.,0.,0.,2.78418,-0.009766,0.044434,0.238281,102,44,51,101
4.332,14:52:33.332,-9.856445,0.108398,0.051758,-0.009521,0.013672,-0.028564,0.,0.,0.,2.78418,-0.009766,0.044434,0.238281,102,44,51,101
4.432,14:52:33.432,-9.836914,0.123047,0.023438,-0.009521,0.013672,-0.029785,0.,0.,0.,2.78418,-0.009766,0.044434,0.238281,102,44,51,101
4.532,14:52:33.532,-9.836914,0.123047,0.023438,-0.009521,0.013672,-0.029785,0.,0.,0.,2.78418,-0.009766,0.044434,0.238281,102,44,51,101
4.632,14:52:33.632,-9.889648,0.089844,0.056641,-0.009521,0.012695,-0.025391,0.,0.,0.,2.784424,-0.009766,0.044434,0.238281,102,44,51,101
4.732,14:52:33.732,-9.90918,0.12793,0.061523,-0.009521,0.011475,-0.026367,0.,0.,0.,2.784424,-0.009766,0.044678,0.238281,102,44,51,101
4.832,14:52:33.832,-9.884766,0.089844,0.018555,-0.010498,0.013672,-0.026367,0.,0.,0.,2.784424,-0.009766,0.044678,0.238281,102,44,51,101
4.932,14:52:33.932,-9.9375,0.084961,0.,-0.009521,0.011475,-0.028564,0.,0.,0.,2.784424,-0.009766,0.044678,0.238281,102,45,51,100
5.032,14:52:34.032,-9.90918,0.084961,0.075195,-0.010498,0.014893,-0.026367,0.,0.,0.,2.784424,-0.01001,0.044678,0.238281,102,45,51,100
5.132,14:52:34.132,-9.90918,0.084961,0.075195,-0.010498,0.014893,-0.026367,0.,0.,0.,2.784424,-0.01001,0.044678,0.238281,102,45,51,100
5.232,14:52:34.232,-9.889648,0.118164,0.02832,-0.009521,0.008301,-0.026367,0.,0.,0.,2.784668,-0.01001,0.044678,0.238281,102,45,51,100
5.332,14:52:34.332,-9.889648,0.118164,0.02832,-0.009521,0.008301,-0.026367,0.,0.,0.,2.784668,-0.01001,0.044678,0.238281,102,45,51,100
5.432,14:52:34.432,-9.851562,0.12793,0.075195,-0.011475,0.011475,-0.026367,0.,0.,0.,2.784668,-0.01001,0.044678,0.238281,102,45,51,100
5.532,14:52:34.532,-9.90918,0.118164,0.023438,-0.011475,0.011475,-0.027588,0.,0.,0.,2.784668,-0.01001,0.044678,0.238281,102,45,51,100
5.632,14:52:34.632,-9.914062,0.132812,-0.003906,-0.009521,0.008301,-0.026367,0.,0.,0.,2.784668,-0.01001,0.044678,0.238281,102,44,52,100
5.732,14:52:34.732,-9.995117,0.208984,0.070312,-0.010498,0.012695,-0.026367,0.,0.,0.,2.784668,-0.01001,0.044678,0.238281,102,44,52,100
5.832,14:52:34.832,-9.875,0.099609,0.066406,-0.010498,0.012695,-0.027588,0.,0.,0.,2.784912,-0.01001,0.044922,0.238281,102,45,52,100
5.932,14:52:34.932,-9.827148,0.084961,0.094727,-0.011475,0.011475,-0.026367,0.,0.,0.,2.784912,-0.01001,0.044678,0.238281,102,45,52,100
6.032,14:52:35.032,-9.875,0.137695,0.02832,-0.012695,0.013672,-0.027588,0.,0.,0.,2.784912,-0.01001,0.044678,0.238281,102,45,52,100
6.132,14:52:35.132,-9.774414,0.142578,0.018555,-0.009521,0.011475,-0.026367,0.,0.,0.,2.784912,-0.01001,0.044922,0.238281,102,45,52,100
6.232,14:52:35.232,-9.770508,0.132812,0.041992,-0.009521,0.009521,-0.028564,0.,0.,0.,2.785156,-0.01001,0.044922,0.238281,102,45,52,101
6.332,14:52:35.332,-9.770508,0.132812,0.041992,-0.009521,0.009521,-0.028564,0.,0.,0.,2.785156,-0.01001,0.044922,0.238281,102,45,52,101
6.432,14:52:35.432,-9.861328,0.066406,0.013672,-0.011475,0.010498,-0.026367,0.,0.,0.,2.785156,-0.01001,0.044922,0.238281,102,45,52,101
6.532,14:52:35.532,-9.861328,0.066406,0.013672,-0.011475,0.010498,-0.026367,0.,0.,0.,2.785156,-0.01001,0.044922,0.238281,102,45,52,101
6.632,14:52:35.632,-9.980469,0.123047,0.094727,-0.009521,0.007324,-0.026367,0.,0.,0.,2.785156,-0.01001,0.044922,0.238281,102,45,52,100
6.732,14:52:35.732,-9.917969,0.142578,-0.008789,-0.014893,0.007324,-0.025391,0.,0.,0.,2.7854,-0.01001,0.044922,0.238281,102,45,52,100
6.832,14:52:35.832,-9.917969,0.142578,-0.008789,-0.014893,0.007324,-0.025391,0.,0.,0.,2.7854,-0.01001,0.044922,0.238281,102,45,52,100
6.932,14:52:35.932,-9.798828,0.118164,0.046875,-0.010498,0.010498,-0.029785,0.,0.,0.,2.785645,-0.01001,0.044922,0.238281,102,45,52,100
7.032,14:52:36.032,-9.798828,0.118164,0.046875,-0.010498,0.010498,-0.029785,0.,0.,0.,2.785645,-0.01001,0.044922,0.238281,102,45,52,100
7.132,14:52:36.132,-9.793945,0.066406,-0.033203,-0.014893,0.012695,-0.026367,0.,0.,0.,2.785645,-0.01001,0.044922,0.238281,102,45,52,100
7.232,14:52:36.232,-9.793945,0.066406,-0.033203,-0.014893,0.012695,-0.026367,0.,0.,0.,2.785645,-0.01001,0.044922,0.238281,102,45,52,100
7.332,14:52:36.332,-9.96582,0.132812,0.013672,-0.011475,0.013672,-0.027588,0.,0.,0.,2.785645,-0.01001,0.044922,0.238281,102,45,51,100
7.432,14:52:36.432,-9.827148,0.099609,0.051758,-0.009521,0.012695,-0.028564,0.,0.,0.,2.785645,-0.01001,0.044922,0.238281,102,45,51,100
7.532,14:52:36.532,-9.922852,0.108398,0.089844,-0.012695,0.009521,-0.028564,0.,0.,0.,2.785645,-0.01001,0.044922,0.238281,102,45,51,100
7.632,14:52:36.632,-9.90918,0.033203,0.066406,-0.011475,0.010498,-0.024414,0.,0.,0.,2.785889,-0.01001,0.044922,0.238281,102,45,51,101
7.732,14:52:36.732,-9.904297,0.12793,0.023438,-0.010498,0.009521,-0.025391,0.,0.,0.,2.785889,-0.01001,0.044922,0.238281,102,45,52,101
7.832,14:52:36.832,-9.818359,0.118164,0.013672,-0.011475,0.013672,-0.026367,0.,0.,0.,2.785889,-0.01001,0.044922,0.238281,102,45,52,101
7.932,14:52:36.932,-9.904297,0.108398,-0.089844,-0.008301,0.015869,-0.026367,0.,0.,0.,2.786133,-0.01001,0.044922,0.238281,102,45,52,100
8.032,14:52:37.032,-9.836914,0.104492,0.003906,-0.008301,0.010498,-0.026367,0.,0.,0.,2.786133,-0.01001,0.044922,0.238281,102,45,52,100
8.132,14:52:37.132,-9.813477,0.099609,0.084961,-0.009521,0.010498,-0.027588,0.,0.,0.,2.785889,-0.01001,0.044922,0.238281,102,45,52,100
8.232,14:52:37.232,-9.856445,0.104492,0.008789,-0.013672,0.012695,-0.029785,0.,0.,0.,2.786133,-0.01001,0.045166,0.238281,102,44,52,100
8.332,14:52:37.332,-9.856445,0.104492,0.008789,-0.013672,0.012695,-0.029785,0.,0.,0.,2.786133,-0.01001,0.045166,0.238281,102,44,52,100
8.432,14:52:37.432,-9.836914,0.066406,0.033203,-0.009521,0.010498,-0.027588,0.,0.,0.,2.785889,-0.01001,0.045166,0.238281,102,44,51,100
8.532,14:52:37.532,-9.836914,0.066406,0.033203,-0.009521,0.010498,-0.027588,0.,0.,0.,2.785889,-0.01001,0.045166,0.238281,102,44,51,100
8.632,14:52:37.632,-9.870117,0.033203,0.089844,-0.010498,0.013672,-0.029785,0.,0.,0.,2.786133,-0.01001,0.045166,0.238281,102,45,51,100
8.732,14:52:37.732,-9.870117,0.033203,0.089844,-0.010498,0.013672,-0.029785,0.,0.,0.,2.786133,-0.01001,0.045166,0.238281,102,45,51,100
8.832,14:52:37.832,-9.870117,0.033203,0.089844,-0.010498,0.013672,-0.029785,0.,0.,0.,2.786133,-0.01001,0.045166,0.238281,102,45,51,100
8.932,14:52:37.932,-9.793945,0.094727,0.037109,-0.011475,0.013672,-0.025391,0.,0.,0.,2.786377,-0.01001,0.045166,0.238281,102,45,51,100
9.032,14:52:38.032,-9.793945,0.094727,0.037109,-0.011475,0.013672,-0.025391,0.,0.,0.,2.786377,-0.01001,0.045166,0.238281,102,45,51,100
9.132,14:52:38.132,-9.884766,0.094727,0.02832,-0.008301,0.010498,-0.027588,0.,0.,0.,2.786377,-0.01001,0.045166,0.238281,102,45,51,100
9.232,14:52:38.232,-9.884766,0.094727,0.02832,-0.008301,0.010498,-0.027588,0.,0.,0.,2.786377,-0.01001,0.045166,0.238281,102,45,51,100
9.332,14:52:38.332,-9.803711,0.041992,-0.02832,-0.012695,0.011475,-0.027588,0.,0.,0.,2.786621,-0.01001,0.045166,0.238281,102,45,51,100
9.432,14:52:38.432,-9.803711,0.041992,-0.02832,-0.012695,0.011475,-0.027588,0.,0.,0.,2.786621,-0.01001,0.045166,0.238281,102,45,51,100
9.532,14:52:38.532,-9.927734,0.161133,0.094727,-0.009521,0.014893,-0.024414,0.,0.,0.,2.786621,-0.01001,0.045166,0.238281,102,45,51,101
9.632,14:52:38.632,-9.927734,0.161133,0.094727,-0.009521,0.014893,-0.024414,0.,0.,0.,2.786621,-0.01001,0.045166,0.238281,102,45,51,101
9.732,14:52:38.732,-9.904297,0.137695,0.041992,-0.009521,0.016846,-0.026367,0.,0.,0.,2.786865,-0.009766,0.045166,0.238281,102,45,51,100
9.832,14:52:38.832,-9.832031,0.123047,0.056641,-0.010498,0.013672,-0.026367,0.,0.,0.,2.786865,-0.009766,0.045166,0.238281,102,45,51,100
9.932,14:52:38.932,-9.899414,0.066406,0.099609,-0.011475,0.011475,-0.026367,0.,0.,0.,2.786621,-0.01001,0.045166,0.238281,102,45,51,100
10.032,14:52:39.032,-9.870117,0.075195,0.061523,-0.012695,0.009521,-0.025391,0.,0.,0.,2.786865,-0.01001,0.045166,0.238281,102,45,51,100
10.132,14:52:39.132,-9.961914,0.118164,0.046875,-0.010498,0.012695,-0.029785,0.,0.,0.,2.786865,-0.01001,0.04541,0.238281,102,45,52,100
10.232,14:52:39.232,-9.875,0.104492,0.051758,-0.010498,0.012695,-0.026367,0.,0.,0.,2.787109,-0.01001,0.04541,0.238281,102,44,52,100
10.332,14:52:39.332,-9.875,0.104492,0.051758,-0.010498,0.012695,-0.026367,0.,0.,0.,2.787109,-0.01001,0.04541,0.238281,102,44,52,100
10.432,14:52:39.432,-9.894531,0.061523,0.018555,-0.011475,0.012695,-0.027588,0.,0.,0.,2.787354,-0.01001,0.04541,0.238281,102,45,52,101
10.532,14:52:39.532,-9.861328,0.132812,0.046875,-0.011475,0.012695,-0.025391,0.,0.,0.,2.787598,-0.01001,0.04541,0.238281,102,45,52,101
10.632,14:52:39.632,-9.899414,0.099609,0.018555,-0.009521,0.012695,-0.027588,0.,0.,0.,2.787842,-0.01001,0.04541,0.238281,102,45,51,101
10.732,14:52:39.732,-9.856445,0.061523,0.066406,-0.010498,0.009521,-0.024414,0.,0.,0.,2.787842,-0.01001,0.045654,0.238281,102,44,51,100
10.832,14:52:39.832,-9.856445,0.061523,0.066406,-0.010498,0.009521,-0.024414,0.,0.,0.,2.787842,-0.01001,0.045654,0.238281,102,44,51,100
10.932,14:52:39.932,-9.927734,0.084961,0.051758,-0.011475,0.009521,-0.027588,0.,0.,0.,2.788086,-0.01001,0.045654,0.238281,102,44,51,100
11.032,14:52:40.032,-9.927734,0.084961,0.051758,-0.011475,0.009521,-0.027588,0.,0.,0.,2.788086,-0.01001,0.045654,0.238281,102,44,51,100
11.132,14:52:40.132,-9.894531,0.113281,0.066406,-0.010498,0.013672,-0.027588,0.,0.,0.,2.788086,-0.01001,0.045654,0.238281,102,45,51,100
11.232,14:52:40.232,-9.84668,0.161133,0.041992,-0.013672,0.011475,-0.025391,0.,0.,0.,2.78833,-0.01001,0.045654,0.238281,102,45,51,100
11.332,14:52:40.332,-9.96582,0.104492,0.008789,-0.012695,0.010498,-0.026367,0.,0.,0.,2.78833,-0.01001,0.045654,0.238281,102,45,51,100
11.432,14:52:40.432,-9.875,0.075195,0.023438,-0.010498,0.012695,-0.028564,0.,0.,0.,2.78833,-0.01001,0.045654,0.238281,102,45,52,100
11.532,14:52:40.532,-9.922852,0.084961,0.075195,-0.010498,0.010498,-0.028564,0.,0.,0.,2.78833,-0.01001,0.045654,0.238281,102,45,52,100
11.632,14:52:40.632,-9.875,0.075195,0.037109,-0.010498,0.010498,-0.028564,0.,0.,0.,2.78833,-0.01001,0.045898,0.238281,103,45,52,100
11.732,14:52:40.732,-9.875,0.075195,0.037109,-0.010498,0.010498,-0.028564,0.,0.,0.,2.78833,-0.01001,0.045898,0.238281,103,45,52,100
11.832,14:52:40.832,-9.957031,0.084961,0.023438,-0.011475,0.012695,-0.025391,0.,0.,0.,2.78833,-0.01001,0.045898,0.238281,103,45,51,101
11.932,14:52:40.932,-9.957031,0.084961,0.023438,-0.011475,0.012695,-0.025391,0.,0.,0.,2.78833,-0.01001,0.045898,0.238281,103,45,51,101
12.032,14:52:41.032,-9.927734,0.12793,0.041992,-0.010498,0.011475,-0.026367,0.,0.,0.,2.78833,-0.01001,0.045898,0.238281,103,45,51,101
12.132,14:52:41.132,-9.927734,0.12793,0.041992,-0.010498,0.011475,-0.026367,0.,0.,0.,2.78833,-0.01001,0.045898,0.238281,103,45,51,101
12.232,14:52:41.232,-9.9375,0.071289,0.041992,-0.009521,0.012695,-0.028564,0.,0.,0.,2.788574,-0.01001,0.045898,0.238281,103,45,51,101
12.332,14:52:41.332,-9.851562,0.166016,0.046875,-0.010498,0.012695,-0.026367,0.,0.,0.,2.788574,-0.01001,0.045898,0.238281,103,45,51,101
12.432,14:52:41.432,-9.899414,0.084961,0.003906,-0.009521,0.014893,-0.027588,0.,0.,0.,2.788574,-0.01001,0.045898,0.242188,103,45,51,101
12.532,14:52:41.532,-9.899414,0.084961,0.003906,-0.009521,0.014893,-0.027588,0.,0.,0.,2.788574,-0.01001,0.045898,0.242188,103,45,51,101
12.632,14:52:41.632,-9.770508,0.041992,0.056641,-0.011475,0.008301,-0.026367,0.,0.,0.,2.788574,-0.01001,0.045898,0.238281,103,45,51,100
12.732,14:52:41.732,-9.770508,0.041992,0.056641,-0.011475,0.008301,-0.026367,0.,0.,0.,2.788574,-0.01001,0.045898,0.238281,103,45,51,100
12.832,14:52:41.832,-9.866211,0.089844,0.013672,-0.011475,0.010498,-0.027588,0.,0.,0.,2.788574,-0.01001,0.045898,0.238281,103,45,51,100
12.932,14:52:41.932,-9.866211,0.089844,0.013672,-0.011475,0.010498,-0.027588,0.,0.,0.,2.788574,-0.01001,0.045898,0.238281,103,45,51,100
13.032,14:52:42.032,-9.985352,-0.018555,0.070312,-0.009521,0.011475,-0.027588,0.,0.,0.,2.788818,-0.01001,0.045898,0.238281,103,45,52,100
13.132,14:52:42.132,-9.985352,-0.018555,0.070312,-0.009521,0.011475,-0.027588,0.,0.,0.,2.788818,-0.01001,0.045898,0.238281,103,45,52,100
13.232,14:52:42.232,-9.889648,-0.041992,0.075195,-0.008301,0.008301,-0.025391,0.,0.,0.,2.788818,-0.01001,0.045898,0.238281,103,44,52,100
13.332,14:52:42.332,-9.889648,-0.041992,0.075195,-0.008301,0.008301,-0.025391,0.,0.,0.,2.788818,-0.01001,0.045898,0.238281,103,44,52,100
13.432,14:52:42.432,-9.884766,0.166016,0.075195,-0.008301,0.012695,-0.028564,0.,0.,0.,2.789062,-0.01001,0.045898,0.238281,103,44,52,100
13.532,14:52:42.532,-9.856445,0.071289,0.018555,-0.012695,0.011475,-0.026367,0.,0.,0.,2.789062,-0.01001,0.045898,0.238281,103,44,52,101
13.632,14:52:42.632,-9.875,0.066406,-0.013672,-0.010498,0.015869,-0.025391,0.,0.,0.,2.789062,-0.01001,0.045898,0.238281,103,44,52,100
13.732,14:52:42.732,-9.875,0.066406,-0.013672,-0.010498,0.015869,-0.025391,0.,0.,0.,2.789062,-0.01001,0.045898,0.238281,103,44,52,100
13.832,14:52:42.832,-9.856445,0.051758,0.132812,-0.010498,0.010498,-0.026367,0.,0.,0.,2.789307,-0.01001,0.045898,0.238281,103,45,52,100
13.932,14:52:42.932,-9.856445,0.051758,0.132812,-0.010498,0.010498,-0.026367,0.,0.,0.,2.789307,-0.01001,0.045898,0.238281,103,45,52,100
14.032,14:52:43.032,-9.750977,0.118164,0.018555,-0.010498,0.011475,-0.027588,0.,0.,0.,2.789551,-0.01001,0.045898,0.238281,103,45,52,101
14.132,14:52:43.132,-9.750977,0.118164,0.018555,-0.010498,0.011475,-0.027588,0.,0.,0.,2.789551,-0.01001,0.045898,0.238281,103,45,52,101
14.232,14:52:43.232,-9.827148,0.094727,0.061523,-0.012695,0.012695,-0.027588,0.,0.,0.,2.789795,-0.01001,0.045898,0.238281,103,45,52,101
14.332,14:52:43.332,-9.957031,0.094727,0.018555,-0.010498,0.007324,-0.026367,0.,0.,0.,2.789795,-0.01001,0.045898,0.238281,103,45,51,101
14.432,14:52:43.432,-9.760742,0.137695,0.051758,-0.010498,0.010498,-0.027588,0.,0.,0.,2.789795,-0.01001,0.045898,0.238281,103,45,51,101
14.532,14:52:43.532,-9.922852,0.089844,0.018555,-0.009521,0.012695,-0.027588,0.,0.,0.,2.789795,-0.01001,0.045654,0.238281,103,45,51,100
14.632,14:52:43.632,-9.884766,0.108398,0.084961,-0.011475,0.010498,-0.028564,0.,0.,0.,2.790039,-0.01001,0.045654,0.238281,103,45,51,100
14.732,14:52:43.732,-9.917969,0.151367,0.013672,-0.009521,0.011475,-0.025391,0.,0.,0.,2.790039,-0.01001,0.045654,0.238281,103,45,51,100
14.832,14:52:43.832,-9.917969,0.151367,0.013672,-0.009521,0.011475,-0.025391,0.,0.,0.,2.790039,-0.01001,0.045654,0.238281,103,45,51,100
14.932,14:52:43.932,-9.947266,0.104492,-0.033203,-0.006348,0.013672,-0.025391,0.,0.,0.,2.790039,-0.01001,0.045654,0.238281,103,45,52,100
15.032,14:52:44.032,-9.947266,0.104492,-0.033203,-0.006348,0.013672,-0.025391,0.,0.,0.,2.790039,-0.01001,0.045654,0.238281,103,45,52,100
15.132,14:52:44.132,-9.90918,0.089844,-0.084961,-0.011475,0.012695,-0.028564,0.,0.,0.,2.790283,-0.01001,0.045654,0.238281,103,45,51,100
15.232,14:52:44.232,-9.90918,0.089844,-0.084961,-0.011475,0.012695,-0.028564,0.,0.,0.,2.790283,-0.01001,0.045654,0.238281,103,45,51,100
15.332,14:52:44.332,-9.818359,0.142578,0.023438,-0.009521,0.010498,-0.026367,0.,0.,0.,2.790283,-0.01001,0.045654,0.238281,103,45,51,100
15.432,14:52:44.432,-9.818359,0.142578,0.023438,-0.009521,0.010498,-0.026367,0.,0.,0.,2.790283,-0.01001,0.045654,0.238281,103,45,51,100
15.532,14:52:44.532,-9.914062,0.071289,0.056641,-0.012695,0.011475,-0.028564,0.,0.,0.,2.790527,-0.01001,0.045654,0.238281,103,45,51,101
15.632,14:52:44.632,-9.914062,0.071289,0.056641,-0.012695,0.011475,-0.028564,0.,0.,0.,2.790527,-0.01001,0.045654,0.238281,103,45,51,101
15.732,14:52:44.732,-9.870117,0.189453,0.,-0.013672,0.009521,-0.026367,0.,0.,0.,2.790527,-0.01001,0.045654,0.238281,103,45,52,101
15.832,14:52:44.832,-9.870117,0.189453,0.,-0.013672,0.009521,-0.026367,0.,0.,0.,2.790527,-0.01001,0.045654,0.238281,103,45,52,101
15.932,14:52:44.932,-9.980469,0.084961,0.008789,-0.012695,0.010498,-0.027588,0.,0.,0.,2.790527,-0.01001,0.045654,0.238281,103,45,51,100
16.032,14:52:45.032,-10.009766,0.137695,0.075195,-0.008301,0.008301,-0.028564,0.,0.,0.,2.790527,-0.01001,0.045654,0.238281,103,45,51,100
16.132,14:52:45.132,-10.009766,0.137695,0.075195,-0.008301,0.008301,-0.028564,0.,0.,0.,2.790527,-0.01001,0.045654,0.238281,103,45,51,100
16.232,14:52:45.232,-10.009766,0.137695,0.075195,-0.008301,0.008301,-0.028564,0.,0.,0.,2.790527,-0.01001,0.045654,0.238281,103,45,51,100
16.332,14:52:45.332,-9.808594,0.151367,0.051758,-0.012695,0.009521,-0.026367,0.,0.,0.,2.790527,-0.01001,0.045654,0.238281,103,45,51,100
16.432,14:52:45.432,-9.808594,0.151367,0.051758,-0.012695,0.009521,-0.026367,0.,0.,0.,2.790527,-0.01001,0.045654,0.238281,103,45,51,100
16.532,14:52:45.532,-9.841797,0.066406,0.075195,-0.012695,0.012695,-0.027588,0.,0.,0.,2.790771,-0.01001,0.045654,0.238281,103,45,51,100
16.632,14:52:45.632,-9.870117,0.084961,0.033203,-0.011475,0.012695,-0.025391,0.,0.,0.,2.790771,-0.010254,0.045654,0.238281,103,45,51,100
16.732,14:52:45.732,-9.884766,0.104492,0.,-0.011475,0.008301,-0.025391,0.,0.,0.,2.791016,-0.010254,0.045654,0.238281,102,45,51,100
16.832,14:52:45.832,-9.856445,0.142578,0.037109,-0.008301,0.010498,-0.027588,0.,0.,0.,2.791016,-0.010254,0.04541,0.238281,102,45,52,100
16.932,14:52:45.932,-9.884766,0.061523,-0.018555,-0.013672,0.013672,-0.028564,0.,0.,0.,2.79126,-0.010254,0.04541,0.238281,102,45,51,100
17.032,14:52:46.032,-9.884766,0.061523,-0.018555,-0.013672,0.013672,-0.028564,0.,0.,0.,2.79126,-0.010254,0.04541,0.238281,102,45,51,100
17.132,14:52:46.132,-9.884766,0.061523,-0.018555,-0.013672,0.013672,-0.028564,0.,0.,0.,2.79126,-0.010254,0.04541,0.238281,102,45,51,100
17.232,14:52:46.232,-9.894531,0.084961,0.056641,-0.008301,0.011475,-0.027588,0.,0.,0.,2.791748,-0.010498,0.04541,0.238281,102,45,52,100
17.332,14:52:46.332,-9.894531,0.084961,0.056641,-0.008301,0.011475,-0.027588,0.,0.,0.,2.791748,-0.010498,0.04541,0.238281,102,45,52,100
17.432,14:52:46.432,-9.894531,0.084961,0.056641,-0.008301,0.011475,-0.027588,0.,0.,0.,2.791748,-0.010498,0.04541,0.238281,102,45,52,100
17.532,14:52:46.532,-9.894531,0.084961,0.056641,-0.008301,0.011475,-0.027588,0.,0.,0.,2.791748,-0.010498,0.04541,0.238281,102,45,52,100
17.632,14:52:46.632,-9.894531,0.084961,0.056641,-0.008301,0.011475,-0.027588,0.,0.,0.,2.791748,-0.010498,0.04541,0.238281,102,45,52,100
17.732,14:52:46.732,-9.884766,0.089844,0.089844,-0.011475,0.010498,-0.026367,0.,0.,0.,2.79248,-0.010498,0.045654,0.238281,102,44,51,100
17.832,14:52:46.832,-9.884766,0.089844,0.089844,-0.011475,0.010498,-0.026367,0.,0.,0.,2.79248,-0.010498,0.045654,0.238281,102,44,51,100
17.932,14:52:46.932,-9.90918,0.161133,0.070312,-0.012695,0.010498,-0.027588,0.,0.,0.,2.792725,-0.010498,0.045654,0.238281,102,45,51,100
18.032,14:52:47.032,-9.90918,0.161133,0.070312,-0.012695,0.010498,-0.027588,0.,0.,0.,2.792725,-0.010498,0.045654,0.238281,102,45,51,100
18.132,14:52:47.132,-9.875,0.146484,0.037109,-0.010498,0.010498,-0.026367,0.,0.,0.,2.792725,-0.010498,0.045654,0.238281,103,45,52,100
18.232,14:52:47.232,-9.841797,0.142578,0.,-0.011475,0.008301,-0.028564,0.,0.,0.,2.792969,-0.010498,0.04541,0.238281,102,45,51,100
18.332,14:52:47.332,-9.841797,0.142578,0.,-0.011475,0.008301,-0.028564,0.,0.,0.,2.792969,-0.010498,0.04541,0.238281,102,45,51,100
18.432,14:52:47.432,-9.904297,0.089844,0.037109,-0.008301,0.010498,-0.028564,0.,0.,0.,2.792969,-0.010498,0.04541,0.238281,102,45,51,100
18.532,14:52:47.532,-9.904297,0.089844,0.037109,-0.008301,0.010498,-0.028564,0.,0.,0.,2.792969,-0.010498,0.04541,0.238281,102,45,51,100
18.632,14:52:47.632,-9.836914,0.099609,0.023438,-0.009521,0.012695,-0.026367,0.,0.,0.,2.793213,-0.010498,0.04541,0.238281,102,45,51,100
18.732,14:52:47.732,-10.023438,0.066406,0.037109,-0.013672,0.009521,-0.026367,0.,0.,0.,2.793213,-0.010498,0.04541,0.238281,102,44,51,101
18.832,14:52:47.832,-9.822266,0.108398,0.070312,-0.013672,0.011475,-0.025391,0.,0.,0.,2.793213,-0.010498,0.04541,0.238281,102,44,51,101
18.932,14:52:47.932,-9.904297,0.12793,0.084961,-0.009521,0.010498,-0.026367,0.,0.,0.,2.793457,-0.010498,0.04541,0.238281,102,45,52,100
19.032,14:52:48.032,-9.904297,0.12793,0.084961,-0.009521,0.010498,-0.026367,0.,0.,0.,2.793457,-0.010498,0.04541,0.238281,102,45,52,100
19.132,14:52:48.132,-9.870117,0.056641,0.023438,-0.008301,0.010498,-0.027588,0.,0.,0.,2.793457,-0.010742,0.04541,0.238281,102,45,52,100
19.232,14:52:48.232,-9.870117,0.056641,0.023438,-0.008301,0.010498,-0.027588,0.,0.,0.,2.793457,-0.010742,0.04541,0.238281,102,45,52,100
19.332,14:52:48.332,-9.851562,0.132812,0.003906,-0.009521,0.011475,-0.026367,0.,0.,0.,2.793701,-0.010742,0.04541,0.238281,102,45,52,100
19.432,14:52:48.432,-9.851562,0.132812,0.003906,-0.009521,0.011475,-0.026367,0.,0.,0.,2.793701,-0.010742,0.04541,0.238281,102,45,52,100
19.532,14:52:48.532,-9.884766,0.104492,-0.051758,-0.009521,0.009521,-0.030762,0.,0.,0.,2.793945,-0.010742,0.04541,0.238281,102,45,52,101
19.632,14:52:48.632,-9.884766,0.104492,-0.051758,-0.009521,0.009521,-0.030762,0.,0.,0.,2.793945,-0.010742,0.04541,0.238281,102,45,52,101
19.732,14:52:48.732,-9.84668,0.104492,0.033203,-0.013672,0.010498,-0.026367,0.,0.,0.,2.793945,-0.010498,0.04541,0.238281,102,45,51,100
19.832,14:52:48.832,-9.84668,0.104492,0.033203,-0.013672,0.010498,-0.026367,0.,0.,0.,2.793945,-0.010498,0.04541,0.238281,102,45,51,100
19.932,14:52:48.932,-9.914062,0.118164,0.013672,-0.012695,0.011475,-0.024414,0.,0.,0.,2.793945,-0.010498,0.04541,0.238281,102,44,51,100
20.032,14:52:49.032,-9.914062,0.118164,0.013672,-0.012695,0.011475,-0.024414,0.,0.,0.,2.793945,-0.010498,0.04541,0.238281,102,44,51,100
20.132,14:52:49.132,-9.851562,0.137695,0.056641,-0.011475,0.010498,-0.026367,0.,0.,0.,2.793945,-0.010498,0.04541,0.238281,102,44,51,100
20.232,14:52:49.232,-9.851562,0.137695,0.056641,-0.011475,0.010498,-0.026367,0.,0.,0.,2.793945,-0.010498,0.04541,0.238281,102,44,51,100
20.332,14:52:49.332,-9.866211,0.15625,0.018555,-0.011475,0.010498,-0.029785,0.,0.,0.,2.794189,-0.010742,0.04541,0.238281,102,44,52,100
20.432,14:52:49.432,-9.866211,0.118164,0.023438,-0.009521,0.011475,-0.027588,0.,0.,0.,2.794434,-0.010742,0.04541,0.238281,102,44,52,100
20.532,14:52:49.532,-9.866211,0.118164,0.023438,-0.009521,0.011475,-0.027588,0.,0.,0.,2.794434,-0.010742,0.04541,0.238281,102,44,52,100
20.632,14:52:49.632,-9.866211,0.118164,0.023438,-0.009521,0.011475,-0.027588,0.,0.,0.,2.794434,-0.010742,0.04541,0.238281,102,44,52,100
20.732,14:52:49.732,-10.966797,0.003906,0.660156,-0.027588,0.007324,-0.146729,0.,0.,0.,2.79541,-0.010986,0.045898,0.238281,102,44,51,100
20.832,14:52:49.832,-10.966797,0.003906,0.660156,-0.027588,0.007324,-0.146729,0.,0.,0.,2.79541,-0.010986,0.045898,0.238281,102,44,51,100
20.932,14:52:49.932,-9.832031,0.298828,0.650391,-0.026367,0.066895,0.028564,0.,0.,0.,2.796143,-0.010254,0.046387,0.238281,102,44,52,100
21.032,14:52:50.032,-9.43457,0.451172,-0.626953,0.023193,-0.046631,-0.012695,0.,0.,0.,2.796387,-0.010498,0.046631,0.238281,102,44,51,100
21.132,14:52:50.132,-10.124023,-0.251953,0.146484,-0.049805,0.006348,-0.128662,0.,0.,0.,2.796143,-0.01123,0.046143,0.238281,102,44,51,100
21.232,14:52:50.232,-10.842773,0.731445,0.597656,0.005127,0.028564,0.05835,0.,0.,0.,2.796631,-0.010742,0.046143,0.238281,102,44,51,100
21.332,14:52:50.332,-10.842773,0.731445,0.597656,0.005127,0.028564,0.05835,0.,0.,0.,2.796631,-0.010742,0.046143,0.238281,102,44,51,100
21.432,14:52:50.432,-8.477539,-0.560547,-0.973633,0.003174,0.02124,-0.02124,0.,0.,0.,2.796631,-0.010986,0.046387,0.238281,102,44,51,101
21.532,14:52:50.532,-8.477539,-0.560547,-0.973633,0.003174,0.02124,-0.02124,0.,0.,0.,2.796631,-0.010986,0.046387,0.238281,102,44,51,101
21.632,14:52:50.632,-10.239258,0.222656,0.123047,-0.043457,-0.006348,-0.15625,0.,0.,0.,2.796631,-0.010742,0.046143,0.238281,103,44,51,101
21.732,14:52:50.732,-10.239258,0.222656,0.123047,-0.043457,-0.006348,-0.15625,0.,0.,0.,2.796631,-0.010742,0.046143,0.238281,103,44,51,101
21.832,14:52:50.832,-10.674805,-0.084961,1.078125,0.008301,0.009521,0.057373,0.,0.,0.,2.796875,-0.010254,0.046143,0.238281,103,44,51,101
21.932,14:52:50.932,-10.674805,-0.084961,1.078125,0.008301,0.009521,0.057373,0.,0.,0.,2.796875,-0.010254,0.046143,0.238281,103,44,51,101
22.032,14:52:51.032,-8.205078,-0.061523,-0.854492,-0.009521,-0.009521,-0.011475,0.,0.,0.,2.797119,-0.010742,0.046631,0.238281,103,44,51,101
22.132,14:52:51.132,-8.205078,-0.061523,-0.854492,-0.009521,-0.009521,-0.011475,0.,0.,0.,2.797119,-0.010742,0.046631,0.238281,103,44,51,101
22.232,14:52:51.232,-8.205078,-0.061523,-0.854492,-0.009521,-0.009521,-0.011475,0.,0.,0.,2.797119,-0.010742,0.046631,0.238281,103,44,51,101
22.332,14:52:51.332,-8.205078,-0.061523,-0.854492,-0.009521,-0.009521,-0.011475,0.,0.,0.,2.797119,-0.010742,0.046631,0.238281,103,44,51,101
22.432,14:52:51.432,-10.249023,-0.46582,1.015625,-0.016846,-0.018066,0.025391,0.,0.,0.,2.797363,-0.01123,0.046143,0.238281,105,44,52,101
22.532,14:52:51.532,-10.249023,-0.46582,1.015625,-0.016846,-0.018066,0.025391,0.,0.,0.,2.797363,-0.01123,0.046143,0.238281,105,44,52,101
22.632,14:52:51.632,-8.759766,0.34668,-0.897461,-0.005127,0.034912,-0.003174,0.,0.,0.,2.797607,-0.010986,0.046875,0.238281,105,44,52,101
22.732,14:52:51.732,-10.397461,-0.037109,0.008789,-0.009521,0.067871,-0.098877,0.,0.,0.,2.797607,-0.01123,0.046631,0.238281,105,44,52,101
22.832,14:52:51.832,-10.37793,0.46582,0.835938,-0.048828,-0.057373,-0.073242,0.,0.,0.,2.797852,-0.010986,0.045898,0.238281,105,44,52,102
22.932,14:52:51.932,-10.344727,0.84082,-0.061523,-0.043457,-0.083984,-0.057373,0.,0.,0.,2.798096,-0.010742,0.046387,0.238281,104,44,51,293
23.032,14:52:52.032,-10.344727,0.84082,-0.061523,-0.043457,-0.083984,-0.057373,0.,0.,0.,2.798096,-0.010742,0.046387,0.238281,104,44,51,293
23.132,14:52:52.132,-9.889648,-1.354492,0.212891,0.02002,0.045654,0.089355,0.,0.,0.,2.798096,-0.01123,0.046631,0.238281,104,44,51,293
23.232,14:52:52.232,-9.889648,-1.354492,0.212891,0.02002,0.045654,0.089355,0.,0.,0.,2.798096,-0.01123,0.046631,0.238281,104,44,51,293
23.332,14:52:52.332,-9.348633,1.045898,-0.217773,-0.038086,0.052979,-0.134033,0.,0.,0.,2.798096,-0.01123,0.046631,0.238281,104,44,51,178
23.432,14:52:52.432,-9.348633,1.045898,-0.217773,-0.038086,0.052979,-0.134033,0.,0.,0.,2.798096,-0.01123,0.046631,0.238281,104,44,51,178
23.532,14:52:52.532,-9.348633,1.045898,-0.217773,-0.038086,0.052979,-0.134033,0.,0.,0.,2.798096,-0.01123,0.046631,0.238281,104,44,51,178
23.632,14:52:52.632,-8.999023,-1.511719,0.293945,-0.014893,-0.015869,0.016846,0.,0.,0.,2.798584,-0.010986,0.046387,0.238281,105,44,52,293
23.732,14:52:52.732,-8.999023,-1.511719,0.293945,-0.014893,-0.015869,0.016846,0.,0.,0.,2.798584,-0.010986,0.046387,0.238281,105,44,52,293
23.832,14:52:52.832,-8.999023,-1.511719,0.293945,-0.014893,-0.015869,0.016846,0.,0.,0.,2.798584,-0.010986,0.046387,0.238281,105,44,52,293
23.932,14:52:52.932,-9.703125,0.189453,1.680664,-0.005127,0.0979,-0.093506,0.,0.,0.,2.798828,-0.010498,0.045898,0.238281,105,44,52,294
24.032,14:52:53.032,-9.703125,0.189453,1.680664,-0.005127,0.0979,-0.093506,0.,0.,0.,2.798828,-0.010498,0.045898,0.238281,105,44,52,294
24.132,14:52:53.132,-9.703125,0.189453,1.680664,-0.005127,0.0979,-0.093506,0.,0.,0.,2.798828,-0.010498,0.045898,0.238281,105,44,52,294
24.232,14:52:53.232,-9.78418,-0.313477,-0.161133,-0.011475,0.065918,-0.062744,0.,0.,0.,2.799072,-0.009766,0.046143,0.238281,104,44,52,292
24.332,14:52:53.332,-9.78418,-0.313477,-0.161133,-0.011475,0.065918,-0.062744,0.,0.,0.,2.799072,-0.009766,0.046143,0.238281,104,44,52,292
24.432,14:52:53.432,-8.147461,-0.379883,0.887695,-0.015869,0.045654,0.019043,0.,0.,0.,2.799316,-0.009766,0.045654,0.238281,104,44,52,292
24.532,14:52:53.532,-8.147461,-0.379883,0.887695,-0.015869,0.045654,0.019043,0.,0.,0.,2.799316,-0.009766,0.045654,0.238281,104,44,52,292
24.632,14:52:53.632,-9.90918,0.137695,-0.293945,-0.016846,-0.05957,0.014893,0.,0.,0.,2.799805,-0.01001,0.045898,0.238281,104,44,52,254
24.732,14:52:53.732,-10.612305,1.054688,-0.023438,-0.006348,0.006348,-0.041504,0.,0.,0.,2.800049,-0.010254,0.045898,0.238281,105,44,52,140
24.832,14:52:53.832,-9.875,0.68457,1.524414,-0.024414,-0.091309,-0.019043,0.,0.,0.,2.799805,-0.010498,0.04541,0.238281,105,44,52,102
24.932,14:52:53.932,-10.004883,0.389648,1.224609,-0.008301,0.039307,-0.063721,0.,0.,0.,2.800049,-0.010254,0.045654,0.238281,106,44,52,140
25.032,14:52:54.032,-9.832031,-0.303711,-0.246094,-0.00415,0.1521,-0.019043,0.,0.,0.,2.800537,-0.01001,0.046387,0.238281,105,44,52,293
25.132,14:52:54.132,-9.832031,-0.303711,-0.246094,-0.00415,0.1521,-0.019043,0.,0.,0.,2.800537,-0.01001,0.046387,0.238281,105,44,52,293
25.232,14:52:54.232,-8.822266,-0.199219,-0.77832,-0.014893,-0.104248,-0.003174,0.,0.,0.,2.800293,-0.01001,0.045898,0.238281,105,45,52,293
25.332,14:52:54.332,-8.822266,-0.199219,-0.77832,-0.014893,-0.104248,-0.003174,0.,0.,0.,2.800293,-0.01001,0.045898,0.238281,105,45,52,293
25.432,14:52:54.432,-10.296875,1.026367,-0.056641,-0.030762,-0.13501,-0.074463,0.,0.,0.,2.800537,-0.01001,0.04541,0.238281,105,44,52,101
25.532,14:52:54.532,-10.450195,-0.099609,0.550781,-0.027588,0.130859,-0.063721,0.,0.,0.,2.800781,-0.010498,0.046143,0.238281,105,44,51,101
25.632,14:52:54.632,-10.450195,-0.099609,0.550781,-0.027588,0.130859,-0.063721,0.,0.,0.,2.800781,-0.010498,0.046143,0.238281,105,44,51,101
25.732,14:52:54.732,-10.450195,-0.099609,0.550781,-0.027588,0.130859,-0.063721,0.,0.,0.,2.800781,-0.010498,0.046143,0.238281,105,44,51,101
25.832,14:52:54.832,-10.450195,-0.099609,0.550781,-0.027588,0.130859,-0.063721,0.,0.,0.,2.800781,-0.010498,0.046143,0.238281,105,44,51,101
25.932,14:52:54.932,-9.961914,0.360352,1.491211,-0.003174,0.032959,-0.032959,0.,0.,0.,2.802002,-0.009766,0.047119,0.238281,105,44,51,294
26.032,14:52:55.032,-9.961914,0.360352,1.491211,-0.003174,0.032959,-0.032959,0.,0.,0.,2.802002,-0.009766,0.047119,0.238281,105,44,51,294
26.132,14:52:55.132,-10.171875,0.983398,-0.270508,-0.036133,-0.09668,-0.041504,0.,0.,0.,2.802246,-0.009277,0.047363,0.238281,105,44,52,178
26.232,14:52:55.232,-9.358398,0.831055,1.381836,0.00415,0.075439,-0.033936,0.,0.,0.,2.80249,-0.009521,0.047363,0.238281,105,44,52,218
26.332,14:52:55.332,-9.34375,-0.161133,1.158203,-0.001953,0.125488,-0.048828,0.,0.,0.,2.802734,-0.010254,0.047852,0.238281,106,44,52,179
26.432,14:52:55.432,-9.34375,-0.161133,1.158203,-0.001953,0.125488,-0.048828,0.,0.,0.,2.802734,-0.010254,0.047852,0.238281,106,44,52,179
26.532,14:52:55.532,-8.898438,0.113281,-0.332031,-0.005127,0.030762,-0.018066,0.,0.,0.,2.803223,-0.010254,0.047852,0.238281,105,44,52,101
26.632,14:52:55.632,-8.898438,0.113281,-0.332031,-0.005127,0.030762,-0.018066,0.,0.,0.,2.803223,-0.010254,0.047852,0.238281,105,44,52,101
26.732,14:52:55.732,-10.320312,-0.921875,-0.612305,-0.003174,-0.05957,-0.025391,0.,0.,0.,2.803467,-0.010254,0.047852,0.238281,105,44,52,216
26.832,14:52:55.832,-10.320312,-0.921875,-0.612305,-0.003174,-0.05957,-0.025391,0.,0.,0.,2.803467,-0.010254,0.047852,0.238281,105,44,52,216
26.932,14:52:55.932,-8.625977,0.298828,-1.818359,-0.016846,0.033936,-0.005127,0.,0.,0.,2.803711,-0.009521,0.048096,0.238281,105,44,52,294
27.032,14:52:56.032,-8.625977,0.298828,-1.818359,-0.016846,0.033936,-0.005127,0.,0.,0.,2.803711,-0.009521,0.048096,0.238281,105,44,52,294
27.132,14:52:56.132,-10.09082,-0.394531,0.370117,-0.009521,-0.067871,0.012695,0.,0.,0.,2.803711,-0.009766,0.047607,0.238281,105,44,51,294
27.232,14:52:56.232,-10.09082,-0.394531,0.370117,-0.009521,-0.067871,0.012695,0.,0.,0.,2.803711,-0.009766,0.047607,0.238281,105,44,51,294
27.332,14:52:56.332,-9.487305,-0.175781,-0.949219,0.008301,-0.108398,-0.015869,0.,0.,0.,2.803955,-0.009766,0.047852,0.238281,105,44,51,294
27.432,14:52:56.432,-9.932617,0.955078,-0.806641,-0.041504,0.,0.003174,0.,0.,0.,2.804199,-0.009277,0.047852,0.238281,105,45,51,178
27.532,14:52:56.532,-10.689453,-0.194336,1.310547,0.00415,-0.121094,-0.025391,0.,0.,0.,2.804443,-0.009277,0.047119,0.238281,106,44,51,101
27.632,14:52:56.632,-10.047852,1.197266,-1.391602,-0.022217,-0.060547,-0.063721,0.,0.,0.,2.804443,-0.009277,0.047852,0.238281,107,44,51,101
27.732,14:52:56.732,-11.004883,0.113281,1.675781,-0.013672,0.083984,-0.032959,0.,0.,0.,2.804443,-0.009277,0.047607,0.238281,107,44,52,102
27.832,14:52:56.832,-10.114258,-0.008789,1.619141,0.001953,0.013672,-0.044678,0.,0.,0.,2.804443,-0.009521,0.047852,0.238281,107,44,52,217
27.932,14:52:56.932,-10.249023,0.260742,-1.5,-0.018066,0.05835,-0.076416,0.,0.,0.,2.804688,-0.009521,0.04834,0.238281,106,44,52,256
28.032,14:52:57.032,-9.416016,-0.68457,2.084961,0.019043,0.170166,-0.055176,0.,0.,0.,2.804443,-0.009521,0.048096,0.238281,105,44,52,140
28.132,14:52:57.132,-9.416016,-0.68457,2.084961,0.019043,0.170166,-0.055176,0.,0.,0.,2.804443,-0.009521,0.048096,0.238281,105,44,52,140
28.232,14:52:57.232,-8.78418,-0.356445,-1.291016,-0.011475,-0.072266,-0.052979,0.,0.,0.,2.804443,-0.009033,0.048096,0.238281,105,44,52,140
28.332,14:52:57.332,-8.78418,-0.356445,-1.291016,-0.011475,-0.072266,-0.052979,0.,0.,0.,2.804443,-0.009033,0.048096,0.238281,105,44,52,140
28.432,14:52:57.432,-13.393555,0.365234,-0.660156,-0.063721,-2.926514,1.47583,0.,0.,0.,2.803467,0.000732,0.072998,0.222656,104,44,51,222
28.532,14:52:57.532,-11.761719,-0.108398,-0.061523,-0.018066,-1.197021,0.314941,0.,0.,0.,2.803223,0.033447,0.04834,0.210938,104,82,51,222
28.632,14:52:57.632,-11.761719,-0.108398,-0.061523,-0.018066,-1.197021,0.314941,0.,0.,0.,2.803223,0.033447,0.04834,0.210938,104,82,51,222
28.732,14:52:57.732,-11.761719,-0.108398,-0.061523,-0.018066,-1.197021,0.314941,0.,0.,0.,2.803223,0.033447,0.04834,0.210938,104,82,51,222
28.832,14:52:57.832,-9.736328,1.830078,-1.362305,0.144531,-0.205322,2.9104,0.,0.,0.,2.809814,-0.197021,0.033203,0.3125,98,102,147,288
28.932,14:52:57.932,-9.736328,1.830078,-1.362305,0.144531,-0.205322,2.9104,0.,0.,0.,2.809814,-0.197021,0.033203,0.3125,98,102,147,288
29.032,14:52:58.032,-7.256836,0.023438,-2.365234,-0.019043,0.055176,1.058838,0.,0.,0.,2.830811,0.12915,0.027588,0.382812,97,138,147,255
29.132,14:52:58.132,-7.256836,0.023438,-2.365234,-0.019043,0.055176,1.058838,0.,0.,0.,2.830811,0.12915,0.027588,0.382812,97,138,147,255
29.232,14:52:58.232,-7.141602,-2.043945,-0.232422,-0.060547,0.014893,-2.357178,0.,0.,0.,2.830566,0.201172,0.015869,0.433594,94,136,147,238
29.332,14:52:58.332,-7.141602,-2.043945,-0.232422,-0.060547,0.014893,-2.357178,0.,0.,0.,2.830566,0.201172,0.015869,0.433594,94,136,147,238
29.432,14:52:58.432,-9.597656,0.432617,-1.624023,-0.051025,-0.046631,0.329834,0.,0.,0.,2.814453,-0.001953,0.01001,0.492188,90,129,153,215
29.532,14:52:58.532,-10.354492,-0.646484,-0.821289,-0.04248,0.006348,0.369141,0.,0.,0.,2.815674,0.002441,0.016602,0.460938,90,126,155,215
29.632,14:52:58.632,-10.420898,0.046875,-0.697266,-0.009521,0.119141,0.046631,0.,0.,0.,2.815918,0.003174,0.02002,0.421875,90,124,156,215
29.732,14:52:58.732,-10.703125,0.046875,0.498047,-0.030762,0.139404,-0.200928,0.,0.,0.,2.815918,0.008789,0.020996,0.386719,91,121,157,173
29.832,14:52:58.832,-10.885742,-0.051758,0.013672,-0.055176,0.043457,-0.11377,0.,0.,0.,2.816162,0.012207,0.02832,0.363281,91,119,158,111
29.932,14:52:58.932,-10.885742,-0.051758,0.013672,-0.055176,0.043457,-0.11377,0.,0.,0.,2.816162,0.012207,0.02832,0.363281,91,119,158,111
30.032,14:52:59.032,-10.885742,-0.051758,0.013672,-0.055176,0.043457,-0.11377,0.,0.,0.,2.816162,0.012207,0.02832,0.363281,91,119,158,111
30.132,14:52:59.132,-10.004883,-0.394531,-0.920898,-0.062744,0.,0.061523,0.,0.,0.,2.815918,0.014648,0.0354,0.339844,93,115,112,107
30.232,14:52:59.232,-10.004883,-0.394531,-0.920898,-0.062744,0.,0.061523,0.,0.,0.,2.815918,0.014648,0.0354,0.339844,93,115,112,107
30.332,14:52:59.332,-9.947266,0.72168,1.837891,0.015869,0.087158,0.155273,0.,0.,0.,2.817139,0.019043,0.03833,0.34375,95,112,81,180
30.432,14:52:59.432,-9.947266,0.72168,1.837891,0.015869,0.087158,0.155273,0.,0.,0.,2.817139,0.019043,0.03833,0.34375,95,112,81,180
30.532,14:52:59.532,-10.674805,1.744141,0.673828,0.029785,0.091309,-1.9729,0.,0.,0.,2.826416,-0.110107,0.073242,0.328125,112,105,85,220
30.632,14:52:59.632,-10.674805,1.744141,0.673828,0.029785,0.091309,-1.9729,0.,0.,0.,2.826416,-0.110107,0.073242,0.328125,112,105,85,220
30.732,14:52:59.732,-9.181641,-0.736328,-0.393555,-0.128662,0.036133,-1.11084,0.,0.,0.,2.821777,-0.192871,0.077393,0.332031,115,105,88,272
30.832,14:52:59.832,-9.181641,-0.736328,-0.393555,-0.128662,0.036133,-1.11084,0.,0.,0.,2.821777,-0.192871,0.077393,0.332031,115,105,88,272
30.932,14:52:59.932,-9.181641,-0.736328,-0.393555,-0.128662,0.036133,-1.11084,0.,0.,0.,2.821777,-0.192871,0.077393,0.332031,115,105,88,272
31.032,14:53:0.032,-9.181641,-0.736328,-0.393555,-0.128662,0.036133,-1.11084,0.,0.,0.,2.821777,-0.192871,0.077393,0.332031,115,105,88,272
31.132,14:53:0.132,-9.970703,1.326172,-0.464844,0.166016,0.099854,-4.375977,0.,0.,0.,2.824951,0.066162,0.057617,0.296875,132,100,160,166
31.232,14:53:0.232,-9.970703,1.326172,-0.464844,0.166016,0.099854,-4.375977,0.,0.,0.,2.824951,0.066162,0.057617,0.296875,132,100,160,166
31.332,14:53:0.332,-9.530273,0.389648,0.541016,-0.027588,-0.02002,-1.902588,0.,0.,0.,2.828125,-0.111816,0.053223,0.296875,133,101,161,166
31.432,14:53:0.432,-10.143555,-0.579102,1.320312,-0.145752,-0.036133,1.235352,0.,0.,0.,2.828857,-0.105957,0.05127,0.308594,135,104,161,164
31.532,14:53:0.532,-9.760742,0.750977,0.084961,-0.065918,0.001953,1.162109,0.,0.,0.,2.828125,-0.08667,0.047852,0.320312,135,106,158,164
31.632,14:53:0.632,-9.760742,0.750977,0.084961,-0.065918,0.001953,1.162109,0.,0.,0.,2.828125,-0.08667,0.047852,0.320312,135,106,158,164
31.732,14:53:0.732,-9.526367,1.135742,1.006836,-0.001953,0.027588,0.00415,0.,0.,0.,2.826416,-0.067627,0.050293,0.328125,135,109,156,107
31.832,14:53:0.832,-9.526367,1.135742,1.006836,-0.001953,0.027588,0.00415,0.,0.,0.,2.826416,-0.067627,0.050293,0.328125,135,109,156,107
31.932,14:53:0.932,-9.219727,-0.313477,1.329102,-0.041504,0.02002,-0.338379,0.,0.,0.,2.82666,-0.032471,0.046387,0.335938,136,112,154,70
32.032,14:53:1.032,-9.219727,-0.313477,1.329102,-0.041504,0.02002,-0.338379,0.,0.,0.,2.82666,-0.032471,0.046387,0.335938,136,112,154,70
32.132,14:53:1.132,-10.727539,-0.132812,0.037109,0.003174,1.7771,0.128662,0.,0.,0.,2.828125,-0.025391,0.086426,0.339844,138,115,152,126
32.232,14:53:1.232,-10.018555,0.365234,1.671875,-0.046631,0.283936,0.186035,0.,0.,0.,2.828613,-0.030518,0.231689,0.339844,139,116,151,164
32.332,14:53:1.332,-9.660156,0.427734,1.647461,-0.032959,-3.144531,0.030762,0.,0.,0.,2.829346,-0.029785,0.186035,0.339844,140,118,151,221
32.432,14:53:1.432,-9.889648,-0.764648,-0.056641,-0.051025,-0.311768,-0.147705,0.,0.,0.,2.829834,-0.021973,-0.002686,0.335938,140,119,151,259
32.532,14:53:1.532,-10.607422,-0.674805,0.070312,0.008301,0.837402,-0.018066,0.,0.,0.,2.830322,-0.015381,-0.062012,0.335938,140,121,152,260
32.632,14:53:1.632,-10.59375,0.779297,0.973633,-0.02002,-0.381836,0.030762,0.,0.,0.,2.831299,-0.014893,-0.025879,0.335938,138,121,154,261
32.732,14:53:1.732,-10.59375,0.779297,0.973633,-0.02002,-0.381836,0.030762,0.,0.,0.,2.831299,-0.014893,-0.025879,0.335938,138,121,154,261
32.832,14:53:1.832,-10.09082,0.755859,2.174805,-0.007324,0.235107,-0.001953,0.,0.,0.,2.831543,-0.013184,0.019287,0.339844,136,121,124,150
32.932,14:53:1.932,-10.09082,0.755859,2.174805,-0.007324,0.235107,-0.001953,0.,0.,0.,2.831543,-0.013184,0.019287,0.339844,136,121,124,150
33.032,14:53:2.032,-9.49707,-0.12793,0.759766,0.008301,0.479736,-0.057373,0.,0.,0.,2.832275,-0.008301,0.023926,0.34375,134,121,81,114
33.132,14:53:2.132,-9.49707,-0.12793,0.759766,0.008301,0.479736,-0.057373,0.,0.,0.,2.832275,-0.008301,0.023926,0.34375,134,121,81,114
33.232,14:53:2.232,-10.770508,0.441406,-0.498047,0.028564,0.949219,-0.619141,0.,0.,0.,2.833984,-0.014648,0.04126,0.351562,134,122,110,228
33.332,14:53:2.332,-10.770508,0.441406,-0.498047,0.028564,0.949219,-0.619141,0.,0.,0.,2.833984,-0.014648,0.04126,0.351562,134,122,110,228
33.432,14:53:2.432,-8.736328,1.749023,2.911133,-0.007324,-1.477051,1.361084,0.,0.,0.,2.835938,-0.087158,0.205811,0.359375,133,122,155,265
33.532,14:53:2.532,-10.62207,-0.099609,0.018555,0.030762,-0.196777,0.128662,0.,0.,0.,2.839111,0.02417,-0.001709,0.359375,133,107,157,265
33.632,14:53:2.632,-11.402344,-0.313477,-2.217773,0.000977,0.,-0.280762,0.,0.,0.,2.841064,0.074951,-0.057617,0.351562,131,86,157,266
33.732,14:53:2.732,-10.583984,0.503906,0.944336,-0.057373,-0.268066,0.164795,0.,0.,0.,2.845215,0.075439,-0.013916,0.347656,127,99,158,230
33.832,14:53:2.832,-10.119141,0.950195,-0.179688,0.057373,0.553223,0.980957,0.,0.,0.,2.851074,0.087402,0.016357,0.347656,125,119,158,120
33.932,14:53:2.932,-9.564453,0.34668,-0.597656,0.037109,0.376709,0.106201,0.,0.,0.,2.853516,0.115723,0.020752,0.347656,123,119,160,121
34.032,14:53:3.032,-9.420898,0.613281,0.431641,0.069092,1.503662,-2.101807,0.,0.,0.,2.861572,0.038574,0.113037,0.347656,122,119,159,235
34.132,14:53:3.132,-10.392578,-1.354492,-1.771484,-0.027588,0.413818,-0.86084,0.,0.,0.,2.863281,-0.031006,0.183838,0.355469,122,120,159,273
34.232,14:53:3.232,-10.392578,-1.354492,-1.771484,-0.027588,0.413818,-0.86084,0.,0.,0.,2.863281,-0.031006,0.183838,0.355469,122,120,159,273
34.332,14:53:3.332,-10.310547,-0.869141,0.174805,-0.170166,-2.121826,0.404297,0.,0.,0.,2.867188,-0.040771,0.071045,0.363281,122,122,155,273
34.432,14:53:3.432,-10.310547,-0.869141,0.174805,-0.170166,-2.121826,0.404297,0.,0.,0.,2.867188,-0.040771,0.071045,0.363281,122,122,155,273
34.532,14:53:3.532,-9.162109,-0.68457,1.751953,-0.045654,-0.825684,0.492676,0.,0.,0.,2.866943,-0.044189,-0.009033,0.367188,122,126,153,274
34.632,14:53:3.632,-10.15332,-0.617188,0.113281,-0.000977,0.206299,-0.131836,0.,0.,0.,2.868164,-0.012207,-0.010986,0.363281,118,130,151,275
34.732,14:53:3.732,-9.875,0.588867,0.388672,-0.034912,0.023193,0.139404,0.,0.,0.,2.869873,-0.004883,0.017334,0.355469,117,131,146,275
34.832,14:53:3.832,-9.875,0.588867,0.388672,-0.034912,0.023193,0.139404,0.,0.,0.,2.869873,-0.004883,0.017334,0.355469,117,131,146,275
34.932,14:53:3.932,-10.166992,-0.636719,0.370117,-0.001953,0.128662,0.046631,0.,0.,0.,2.87085,-0.003418,0.032227,0.351562,117,133,144,202
35.032,14:53:4.032,-10.166992,-0.636719,0.370117,-0.001953,0.128662,0.046631,0.,0.,0.,2.87085,-0.003418,0.032227,0.351562,117,133,144,202
35.132,14:53:4.132,-9.765625,-0.293945,1.386719,-0.012695,0.129639,-0.05957,0.,0.,0.,2.873535,0.001221,0.032227,0.34375,116,135,142,93
35.232,14:53:4.232,-9.765625,-0.293945,1.386719,-0.012695,0.129639,-0.05957,0.,0.,0.,2.873535,0.001221,0.032227,0.34375,116,135,142,93
35.332,14:53:4.332,-10.669922,0.242188,-0.080078,-0.001953,-0.083008,-0.016846,0.,0.,0.,2.875977,0.003662,0.032471,0.339844,116,136,141,93
35.432,14:53:4.432,-10.669922,0.242188,-0.080078,-0.001953,-0.083008,-0.016846,0.,0.,0.,2.875977,0.003662,0.032471,0.339844,116,136,141,93
35.532,14:53:4.532,-10.669922,0.242188,-0.080078,-0.001953,-0.083008,-0.016846,0.,0.,0.,2.875977,0.003662,0.032471,0.339844,116,136,141,93
35.632,14:53:4.632,-10.253906,0.436523,0.388672,0.02124,-2.152832,-0.025391,0.,0.,0.,2.885498,0.002197,0.071045,0.335938,116,142,135,273
35.732,14:53:4.732,-10.253906,0.436523,0.388672,0.02124,-2.152832,-0.025391,0.,0.,0.,2.885498,0.002197,0.071045,0.335938,116,142,135,273
35.832,14:53:4.832,-9.238281,0.003906,-1.438477,-0.003174,0.051025,-0.022217,0.,0.,0.,2.898926,0.001953,0.059326,0.359375,123,161,115,271
35.932,14:53:4.932,-10.110352,-0.560547,-1.063477,-0.029785,0.083008,-0.018066,0.,0.,0.,2.89917,0.000977,0.062012,0.355469,123,164,113,271
36.032,14:53:5.032,-10.110352,-0.560547,-1.063477,-0.029785,0.083008,-0.018066,0.,0.,0.,2.89917,0.000977,0.062012,0.355469,123,164,113,271
36.132,14:53:5.132,-9.506836,-0.712891,0.512695,-0.036133,-0.063721,-0.262695,0.,0.,0.,2.899658,-0.014404,0.058105,0.351562,123,166,110,271
36.232,14:53:5.232,-9.506836,-0.712891,0.512695,-0.036133,-0.063721,-0.262695,0.,0.,0.,2.899658,-0.014404,0.058105,0.351562,123,166,110,271
36.332,14:53:5.332,-10.095703,-0.827148,-0.451172,-0.027588,-0.107422,-0.144531,0.,0.,0.,2.900391,-0.023926,0.056396,0.347656,125,171,107,269
36.432,14:53:5.432,-10.095703,-0.827148,-0.451172,-0.027588,-0.107422,-0.144531,0.,0.,0.,2.900391,-0.023926,0.056396,0.347656,125,171,107,269
36.532,14:53:5.532,-10.095703,-0.827148,-0.451172,-0.027588,-0.107422,-0.144531,0.,0.,0.,2.900391,-0.023926,0.056396,0.347656,125,171,107,269
36.632,14:53:5.632,-10.095703,-0.827148,-0.451172,-0.027588,-0.107422,-0.144531,0.,0.,0.,2.900391,-0.023926,0.056396,0.347656,125,171,107,269
36.732,14:53:5.732,-10.646484,-0.845703,-0.070312,-0.04248,-0.001953,-0.023193,0.,0.,0.,2.901611,-0.034668,0.052734,0.347656,124,177,101,263
36.832,14:53:5.832,-10.646484,-0.845703,-0.070312,-0.04248,-0.001953,-0.023193,0.,0.,0.,2.901611,-0.034668,0.052734,0.347656,124,177,101,263
36.932,14:53:5.932,-11.50293,-0.151367,-0.041992,-0.044678,-0.052979,-0.067871,0.,0.,0.,2.900146,-0.053711,0.050537,0.324219,131,174,87,150
37.032,14:53:6.032,-11.50293,-0.151367,-0.041992,-0.044678,-0.052979,-0.067871,0.,0.,0.,2.900146,-0.053711,0.050537,0.324219,131,174,87,150
37.132,14:53:6.132,-10.262695,0.603516,0.013672,-0.031738,0.011475,0.066895,0.,0.,0.,2.899414,-0.05127,0.054199,0.324219,132,192,76,77
37.232,14:53:6.232,-10.262695,0.603516,0.013672,-0.031738,0.011475,0.066895,0.,0.,0.,2.899414,-0.05127,0.054199,0.324219,132,192,76,77
37.332,14:53:6.332,-9.463867,0.469727,-0.688477,-0.038086,0.049805,-0.009521,0.,0.,0.,2.897705,-0.048828,0.053955,0.332031,133,194,75,76
37.432,14:53:6.432,-9.607422,0.008789,0.393555,-0.154297,-1.097168,0.867188,0.,0.,0.,2.896729,-0.047607,0.205566,0.355469,135,178,83,75
37.532,14:53:6.532,-9.827148,0.270508,1.010742,-0.034912,-0.128662,0.425537,0.,0.,0.,2.895264,-0.017578,0.174805,0.355469,136,196,83,185
37.632,14:53:6.632,-9.917969,-0.436523,0.77832,-0.056396,-1.364258,-0.154297,0.,0.,0.,2.894287,-0.003906,0.115234,0.34375,133,194,84,259
37.732,14:53:6.732,-9.917969,-0.436523,0.77832,-0.056396,-1.364258,-0.154297,0.,0.,0.,2.894287,-0.003906,0.115234,0.34375,133,194,84,259
37.832,14:53:6.832,-10.904297,-0.075195,-0.569336,-0.026367,-0.406494,-0.221191,0.,0.,0.,2.893311,0.000977,-0.057129,0.347656,132,192,85,261
37.932,14:53:6.932,-10.904297,-0.075195,-0.569336,-0.026367,-0.406494,-0.221191,0.,0.,0.,2.893311,0.000977,-0.057129,0.347656,132,192,85,261
38.032,14:53:7.032,-10.794922,0.926758,-1.466797,-0.005127,0.184082,0.087158,0.,0.,0.,2.893555,-0.000488,-0.095947,0.363281,126,190,87,263
38.132,14:53:7.132,-10.794922,0.926758,-1.466797,-0.005127,0.184082,0.087158,0.,0.,0.,2.893555,-0.000488,-0.095947,0.363281,126,190,87,263
38.232,14:53:7.232,-9.592773,-0.213867,-2.108398,-0.009521,-0.164795,0.038086,0.,0.,0.,2.895752,-0.00293,-0.027588,0.386719,123,189,88,159
38.332,14:53:7.332,-9.592773,-0.213867,-2.108398,-0.009521,-0.164795,0.038086,0.,0.,0.,2.895752,-0.00293,-0.027588,0.386719,123,189,88,159
38.432,14:53:7.432,-10.828125,0.494141,0.166016,-0.008301,-0.193604,0.116943,0.,0.,0.,2.900391,0.012939,0.0271,0.363281,112,185,95,277
38.532,14:53:7.532,-10.828125,0.494141,0.166016,-0.008301,-0.193604,0.116943,0.,0.,0.,2.900391,0.012939,0.0271,0.363281,112,185,95,277
38.632,14:53:7.632,-10.249023,-0.327148,-0.255859,-0.000977,-0.034912,-0.069092,0.,0.,0.,2.901855,0.015625,0.030762,0.355469,111,183,95,278
38.732,14:53:7.732,-9.477539,0.327148,-1.756836,0.00415,0.07959,-0.065918,0.,0.,0.,2.904053,0.010498,0.026855,0.351562,109,181,98,134
38.832,14:53:7.832,-10.483398,-0.650391,-0.536133,-0.04248,0.025391,-0.073242,0.,0.,0.,2.904297,0.007568,0.029297,0.355469,109,180,100,96
38.932,14:53:7.932,-9.43457,-0.013672,-0.99707,0.016846,0.003174,-0.098877,0.,0.,0.,2.904785,0.005859,0.036377,0.359375,110,180,100,96
39.032,14:53:8.032,-9.43457,-0.013672,-0.99707,0.016846,0.003174,-0.098877,0.,0.,0.,2.904785,0.005859,0.036377,0.359375,110,180,100,96
39.132,14:53:8.132,-11.182617,-0.289062,-1.970703,0.024414,1.575928,-0.034912,0.,0.,0.,2.907471,0.006592,0.083984,0.363281,111,181,100,132
39.232,14:53:8.232,-11.182617,-0.289062,-1.970703,0.024414,1.575928,-0.034912,0.,0.,0.,2.907471,0.006592,0.083984,0.363281,111,181,100,132
39.332,14:53:8.332,-9.62207,-0.094727,-0.668945,-0.014893,0.107422,0.005127,0.,0.,0.,2.9104,0.004883,0.174805,0.359375,112,182,100,243
39.432,14:53:8.432,-9.62207,-0.094727,-0.668945,-0.014893,0.107422,0.005127,0.,0.,0.,2.9104,0.004883,0.174805,0.359375,112,182,100,243
39.532,14:53:8.532,-9.578125,0.370117,0.070312,-0.006348,0.270264,0.007324,0.,0.,0.,2.919922,-0.008545,0.048584,0.421875,116,182,98,280
39.632,14:53:8.632,-9.975586,-0.517578,-0.864258,0.005127,0.111572,-0.071289,0.,0.,0.,2.92041,-0.013916,0.049805,0.433594,118,182,98,279
39.732,14:53:8.732,-8.462891,0.341797,-0.801758,-0.012695,-0.054199,-0.049805,0.,0.,0.,2.920898,-0.018311,0.055908,0.414062,118,182,96,278
39.832,14:53:8.832,-10.334961,0.179688,-0.12793,-0.043457,0.052002,0.010498,0.,0.,0.,2.920654,-0.020752,0.058594,0.382812,119,183,96,278
39.932,14:53:8.932,-10.387695,0.56543,0.061523,-0.028564,0.178711,-0.081787,0.,0.,0.,2.920166,-0.02002,0.063232,0.355469,119,185,95,279
40.032,14:53:9.032,-10.387695,0.56543,0.061523,-0.028564,0.178711,-0.081787,0.,0.,0.,2.920166,-0.02002,0.063232,0.355469,119,185,95,279
40.132,14:53:9.132,-10.057617,-0.398438,0.626953,-0.039307,0.036133,-0.032959,0.,0.,0.,2.920166,-0.021973,0.064209,0.347656,119,138,95,203
40.232,14:53:9.232,-10.057617,-0.398438,0.626953,-0.039307,0.036133,-0.032959,0.,0.,0.,2.920166,-0.021973,0.064209,0.347656,119,138,95,203
40.332,14:53:9.332,-10.0625,0.285156,0.678711,-0.02002,0.031738,-0.043457,0.,0.,0.,2.919434,-0.024658,0.066162,0.359375,119,107,93,91
40.432,14:53:9.432,-10.0625,0.285156,0.678711,-0.02002,0.031738,-0.043457,0.,0.,0.,2.919434,-0.024658,0.066162,0.359375,119,107,93,91
40.532,14:53:9.532,-9.750977,-0.151367,-1.287109,-0.02124,-0.084961,0.011475,0.,0.,0.,2.918213,-0.020508,0.062256,0.371094,121,155,93,91
40.632,14:53:9.632,-9.018555,-1.087891,-0.023438,-0.031738,0.008301,-0.067871,0.,0.,0.,2.917725,-0.019043,0.060547,0.386719,121,187,91,91
40.732,14:53:9.732,-10.052734,-0.075195,0.602539,-0.02002,1.228027,-0.078613,0.,0.,0.,2.918701,-0.019775,0.136963,0.398438,122,187,91,167
40.832,14:53:9.832,-10.052734,-0.075195,0.602539,-0.02002,1.228027,-0.078613,0.,0.,0.,2.918701,-0.019775,0.136963,0.398438,122,187,91,167
40.932,14:53:9.932,-9.884766,-0.398438,-1.657227,-0.04248,0.360596,-0.019043,0.,0.,0.,2.917236,-0.020264,0.177734,0.414062,121,187,91,282
41.032,14:53:10.032,-9.884766,-0.398438,-1.657227,-0.04248,0.360596,-0.019043,0.,0.,0.,2.917236,-0.020264,0.177734,0.414062,121,187,91,282
41.132,14:53:10.132,-8.027344,-0.883789,0.574219,-0.089355,-1.426025,0.081787,0.,0.,0.,2.916748,-0.021484,0.175537,0.421875,120,187,91,258
41.232,14:53:10.232,-8.027344,-0.883789,0.574219,-0.089355,-1.426025,0.081787,0.,0.,0.,2.916748,-0.021484,0.175537,0.421875,120,187,91,258
41.332,14:53:10.332,-9.630859,0.023438,0.204102,-0.086182,-0.325439,-0.038086,0.,0.,0.,2.914551,-0.019531,0.032227,0.425781,119,187,91,223
41.432,14:53:10.432,-9.630859,0.023438,0.204102,-0.086182,-0.325439,-0.038086,0.,0.,0.,2.914551,-0.019531,0.032227,0.425781,119,187,91,223
41.532,14:53:10.532,-10.249023,0.537109,-0.246094,-0.036133,-0.120117,0.060547,0.,0.,0.,2.912354,-0.016846,-0.014404,0.433594,119,187,91,245
41.632,14:53:10.632,-10.249023,0.537109,-0.246094,-0.036133,-0.120117,0.060547,0.,0.,0.,2.912354,-0.016846,-0.014404,0.433594,119,187,91,245
41.732,14:53:10.732,-10.023438,-0.146484,1.695312,-0.061523,-0.19458,-0.09668,0.,0.,0.,2.910889,-0.013672,0.011719,0.429688,117,181,91,278
41.832,14:53:10.832,-10.023438,-0.146484,1.695312,-0.061523,-0.19458,-0.09668,0.,0.,0.,2.910889,-0.013672,0.011719,0.429688,117,181,91,278
41.932,14:53:10.932,-9.487305,-0.075195,0.40332,-0.034912,0.435059,-0.076416,0.,0.,0.,2.909424,-0.01001,0.025879,0.425781,114,161,90,207
42.032,14:53:11.032,-9.487305,-0.075195,0.40332,-0.034912,0.435059,-0.076416,0.,0.,0.,2.909424,-0.01001,0.025879,0.425781,114,161,90,207
42.132,14:53:11.132,-10.550781,-0.507812,-1.063477,-0.041504,0.122314,0.02124,0.,0.,0.,2.908691,-0.009766,0.028564,0.417969,112,161,89,101
42.232,14:53:11.232,-10.550781,-0.507812,-1.063477,-0.041504,0.122314,0.02124,0.,0.,0.,2.908691,-0.009766,0.028564,0.417969,112,161,89,101
42.332,14:53:11.332,-10.550781,-0.507812,-1.063477,-0.041504,0.122314,0.02124,0.,0.,0.,2.908691,-0.009766,0.028564,0.417969,112,161,89,101
42.432,14:53:11.432,-10.550781,-0.507812,-1.063477,-0.041504,0.122314,0.02124,0.,0.,0.,2.908691,-0.009766,0.028564,0.417969,112,161,89,101
42.532,14:53:11.532,-10.310547,0.336914,0.431641,-0.07959,0.,-0.148926,0.,0.,0.,2.901123,-0.019043,0.026611,0.40625,108,186,91,285
42.632,14:53:11.632,-10.310547,0.336914,0.431641,-0.07959,0.,-0.148926,0.,0.,0.,2.901123,-0.019043,0.026611,0.40625,108,186,91,285
42.732,14:53:11.732,-8.678711,0.422852,1.486328,-0.005127,0.073242,-0.038086,0.,0.,0.,2.891113,0.002441,0.028809,0.5,103,180,92,287
42.832,14:53:11.832,-10.014648,-0.988281,-0.859375,-0.044678,0.014893,-0.001953,0.,0.,0.,2.890381,-0.000244,0.032227,0.476562,104,179,93,287
42.932,14:53:11.932,-10.014648,-0.988281,-0.859375,-0.044678,0.014893,-0.001953,0.,0.,0.,2.890381,-0.000244,0.032227,0.476562,104,179,93,287
43.032,14:53:12.032,-9.851562,-0.375,-0.797852,-0.006348,0.001953,-0.048828,0.,0.,0.,2.891846,0.007324,0.068604,0.382812,110,176,99,281
43.132,14:53:12.132,-9.894531,0.537109,1.652344,-0.011475,0.018066,-0.039307,0.,0.,0.,2.893066,0.010254,0.070068,0.394531,111,177,99,278
43.232,14:53:12.232,-9.46875,-0.731445,0.265625,-0.02124,0.072266,-0.027588,0.,0.,0.,2.894531,0.006348,0.071045,0.417969,112,176,100,277
43.332,14:53:12.332,-9.46875,-0.731445,0.265625,-0.02124,0.072266,-0.027588,0.,0.,0.,2.894531,0.006348,0.071045,0.417969,112,176,100,277
43.432,14:53:12.432,-9.429688,-0.204102,0.512695,0.014893,0.116943,-0.022217,0.,0.,0.,2.895264,0.00415,0.072998,0.433594,114,176,100,275
43.532,14:53:12.532,-9.429688,-0.204102,0.512695,0.014893,0.116943,-0.022217,0.,0.,0.,2.895264,0.00415,0.072998,0.433594,114,176,100,275
43.632,14:53:12.632,-10.148438,0.688477,1.80957,-0.014893,0.038086,-0.036133,0.,0.,0.,2.89624,0.005127,0.079102,0.445312,116,176,100,275
43.732,14:53:12.732,-10.148438,0.688477,1.80957,-0.014893,0.038086,-0.036133,0.,0.,0.,2.89624,0.005127,0.079102,0.445312,116,176,100,275
43.832,14:53:12.832,-9.755859,0.427734,0.199219,-0.023193,0.084961,-0.070068,0.,0.,0.,2.895264,-0.000732,0.080811,0.453125,117,176,99,275
43.932,14:53:12.932,-9.755859,0.427734,0.199219,-0.023193,0.084961,-0.070068,0.,0.,0.,2.895264,-0.000732,0.080811,0.453125,117,176,99,275
44.032,14:53:13.032,-9.49707,-0.303711,0.018555,-0.041504,0.040283,-0.114746,0.,0.,0.,2.894043,-0.001221,0.081299,0.46875,120,176,99,274
44.132,14:53:13.132,-9.439453,0.507812,1.115234,0.003174,0.026367,-0.094482,0.,0.,0.,2.891846,-0.008789,0.083496,0.488281,121,177,100,270
44.232,14:53:13.232,-10.272461,-0.099609,0.383789,-0.013672,-0.056396,0.016846,0.,0.,0.,2.890381,-0.008545,0.075928,0.460938,122,179,98,270
44.332,14:53:13.332,-10.272461,-0.099609,0.383789,-0.013672,-0.056396,0.016846,0.,0.,0.,2.890381,-0.008545,0.075928,0.460938,122,179,98,270
44.432,14:53:13.432,-10.885742,-0.921875,0.141602,-0.083984,-0.036133,0.008301,0.,0.,0.,2.888916,-0.009277,0.072754,0.417969,122,179,97,270
44.532,14:53:13.532,-10.885742,-0.921875,0.141602,-0.083984,-0.036133,0.008301,0.,0.,0.,2.888916,-0.009277,0.072754,0.417969,122,179,97,270
44.632,14:53:13.632,-11.880859,-0.199219,1.428711,-0.080811,0.019043,-0.02124,0.,0.,0.,2.88623,-0.010498,0.064453,0.371094,123,181,96,273
44.732,14:53:13.732,-11.880859,-0.199219,1.428711,-0.080811,0.019043,-0.02124,0.,0.,0.,2.88623,-0.010498,0.064453,0.371094,123,181,96,273
44.832,14:53:13.832,-11.915039,0.094727,-0.166016,-0.087158,-0.089355,0.071289,0.,0.,0.,2.882568,-0.013428,0.063721,0.355469,123,182,95,274
44.932,14:53:13.932,-9.569336,-0.441406,-0.099609,-0.091309,0.008301,-0.1521,0.,0.,0.,2.873535,-0.02002,0.057617,0.386719,122,185,94,241
45.032,14:53:14.032,-9.569336,-0.441406,-0.099609,-0.091309,0.008301,-0.1521,0.,0.,0.,2.873535,-0.02002,0.057617,0.386719,122,185,94,241
45.132,14:53:14.132,-9.72168,0.874023,2.013672,-0.054199,-0.070068,-0.04248,0.,0.,0.,2.870361,-0.017334,0.055664,0.414062,121,187,92,132
45.232,14:53:14.232,-9.72168,0.874023,2.013672,-0.054199,-0.070068,-0.04248,0.,0.,0.,2.870361,-0.017334,0.055664,0.414062,121,187,92,132
45.332,14:53:14.332,-9.726562,0.375,0.740234,-0.054199,0.02002,-0.010498,0.,0.,0.,2.866699,-0.016113,0.052734,0.441406,120,188,91,132
45.432,14:53:14.432,-9.726562,0.375,0.740234,-0.054199,0.02002,-0.010498,0.,0.,0.,2.866699,-0.016113,0.052734,0.441406,120,188,91,132
45.532,14:53:14.532,-9.229492,0.489258,1.025391,-0.047852,1.048096,-0.083008,0.,0.,0.,2.863037,-0.017578,0.083984,0.472656,119,189,89,241
45.632,14:53:14.632,-8.875,0.503906,0.379883,-0.069092,0.015869,0.014893,0.,0.,0.,2.858643,-0.022217,0.140625,0.484375,117,189,88,278
45.732,14:53:14.732,-9.789062,-0.265625,0.118164,-0.13501,-1.726074,-0.048828,0.,0.,0.,2.854492,-0.025879,0.088867,0.488281,116,190,87,280
45.832,14:53:14.832,-9.980469,-0.242188,0.597656,-0.064697,-0.02124,-0.033936,0.,0.,0.,2.850098,-0.027832,0.011719,0.484375,113,191,87,247
45.932,14:53:14.932,-10.014648,-1.150391,-1.262695,-0.066895,0.256348,0.07959,0.,0.,0.,2.846436,-0.024902,-0.019043,0.480469,111,192,85,198
46.032,14:53:15.032,-10.775391,-0.34668,-0.792969,-0.038086,-0.157471,0.037109,0.,0.,0.,2.84375,-0.025146,-0.007568,0.46875,110,193,85,234
46.132,14:53:15.132,-10.775391,-0.34668,-0.792969,-0.038086,-0.157471,0.037109,0.,0.,0.,2.84375,-0.025146,-0.007568,0.46875,110,193,85,234
46.232,14:53:15.232,-10.607422,0.208984,1.106445,-0.043457,-0.001953,-0.184082,0.,0.,0.,2.840332,-0.022705,0.004883,0.460938,108,194,84,290
46.332,14:53:15.332,-10.607422,0.208984,1.106445,-0.043457,-0.001953,-0.184082,0.,0.,0.,2.840332,-0.022705,0.004883,0.460938,108,194,84,290
46.432,14:53:15.432,-9.688477,-0.265625,-2.18457,-0.049805,0.11377,-0.037109,0.,0.,0.,2.837646,-0.022217,0.012451,0.457031,106,193,84,290
46.532,14:53:15.532,-9.688477,-0.265625,-2.18457,-0.049805,0.11377,-0.037109,0.,0.,0.,2.837646,-0.022217,0.012451,0.457031,106,193,84,290
46.632,14:53:15.632,-9.688477,-0.265625,-2.18457,-0.049805,0.11377,-0.037109,0.,0.,0.,2.837646,-0.022217,0.012451,0.457031,106,193,84,290
46.732,14:53:15.732,-9.861328,-0.365234,-0.821289,-0.051025,0.081787,0.,0.,0.,0.,2.829102,-0.02002,0.020508,0.453125,104,192,84,106
46.832,14:53:15.832,-10.105469,1.107422,1.761719,-0.038086,0.056396,0.02002,0.,0.,0.,2.82666,-0.015625,0.026611,0.457031,105,191,84,180
46.932,14:53:15.932,-9.554688,-0.237305,-1.149414,-0.015869,0.135986,0.018066,0.,0.,0.,2.825195,-0.011475,0.0354,0.457031,105,190,85,291
47.032,14:53:16.032,-9.612305,0.094727,1.249023,-0.031738,0.032959,0.023193,0.,0.,0.,2.824219,-0.01123,0.040527,0.457031,107,189,86,288
47.132,14:53:16.132,-9.980469,-0.323242,-0.806641,-0.032959,0.182861,0.11792,0.,0.,0.,2.824707,-0.003662,0.049072,0.445312,107,188,87,285
47.232,14:53:16.232,-10.463867,-0.170898,1.129883,-0.045654,0.05957,-0.008301,0.,0.,0.,2.825195,-0.003662,0.053711,0.433594,109,187,88,283
47.332,14:53:16.332,-9.665039,-0.579102,0.250977,-0.057373,-0.030762,-0.032959,0.,0.,0.,2.824951,-0.001709,0.055176,0.464844,110,187,90,280
47.432,14:53:16.432,-9.665039,-0.579102,0.250977,-0.057373,-0.030762,-0.032959,0.,0.,0.,2.824951,-0.001709,0.055176,0.464844,110,187,90,280
47.532,14:53:16.532,-9.635742,0.242188,-0.90625,-0.007324,0.028564,-0.018066,0.,0.,0.,2.823975,0.006592,0.066406,0.488281,103,182,95,273
47.632,14:53:16.632,-9.635742,0.242188,-0.90625,-0.007324,0.028564,-0.018066,0.,0.,0.,2.823975,0.006592,0.066406,0.488281,103,182,95,273
47.732,14:53:16.732,-10.344727,0.912109,-1.310547,-0.009521,0.114746,-0.052979,0.,0.,0.,2.822266,0.010986,0.038086,0.445312,123,179,96,267
47.832,14:53:16.832,-10.344727,0.912109,-1.310547,-0.009521,0.114746,-0.052979,0.,0.,0.,2.822266,0.010986,0.038086,0.445312,123,179,96,267
47.932,14:53:16.932,-10.755859,-0.260742,-0.023438,-0.028564,0.819336,-0.057373,0.,0.,0.,2.820557,0.010986,0.053223,0.433594,126,179,98,265
48.032,14:53:17.032,-10.755859,-0.260742,-0.023438,-0.028564,0.819336,-0.057373,0.,0.,0.,2.820557,0.010986,0.053223,0.433594,126,179,98,265
48.132,14:53:17.132,-9.822266,-0.242188,-0.426758,-0.000977,0.02124,-0.061523,0.,0.,0.,2.819336,0.006348,0.095215,0.4375,129,179,99,262
48.232,14:53:17.232,-9.822266,-0.242188,-0.426758,-0.000977,0.02124,-0.061523,0.,0.,0.,2.819336,0.006348,0.095215,0.4375,129,179,99,262
48.332,14:53:17.332,-9.726562,0.170898,1.224609,-0.037109,-0.318115,-0.031738,0.,0.,0.,2.817871,0.006348,0.095947,0.445312,132,178,100,261
48.432,14:53:17.432,-9.726562,0.170898,1.224609,-0.037109,-0.318115,-0.031738,0.,0.,0.,2.817871,0.006348,0.095947,0.445312,132,178,100,261
48.532,14:53:17.532,-9.363281,-0.545898,-0.992188,-0.02002,0.041504,-0.047852,0.,0.,0.,2.816895,0.008301,0.080566,0.457031,135,177,101,259
48.632,14:53:17.632,-9.363281,-0.545898,-0.992188,-0.02002,0.041504,-0.047852,0.,0.,0.,2.816895,0.008301,0.080566,0.457031,135,177,101,259
48.732,14:53:17.732,-9.43457,0.541016,-0.02832,-0.022217,-0.016846,-0.043457,0.,0.,0.,2.81543,0.007324,0.064453,0.46875,139,177,101,259
48.832,14:53:17.832,-9.43457,0.541016,-0.02832,-0.022217,-0.016846,-0.043457,0.,0.,0.,2.81543,0.007324,0.064453,0.46875,139,177,101,259
48.932,14:53:17.932,-9.43457,0.541016,-0.02832,-0.022217,-0.016846,-0.043457,0.,0.,0.,2.81543,0.007324,0.064453,0.46875,139,177,101,259
49.032,14:53:18.032,-9.803711,-0.099609,0.212891,-0.025391,0.028564,-0.030762,0.,0.,0.,2.817627,-0.005859,0.059326,0.503906,151,179,98,242
49.132,14:53:18.132,-9.607422,-0.650391,0.075195,-0.032959,0.083008,-0.062744,0.,0.,0.,2.817627,-0.011963,0.056152,0.507812,154,179,98,241
49.232,14:53:18.232,-9.741211,0.303711,1.229492,0.,0.077637,0.033936,0.,0.,0.,2.81958,-0.015381,0.053955,0.519531,156,179,97,239
49.332,14:53:18.332,-10.234375,-0.336914,-0.208984,0.023193,0.034912,-0.028564,0.,0.,0.,2.848145,-0.016113,0.052002,0.488281,169,183,92,225
49.432,14:53:18.432,-10.234375,-0.336914,-0.208984,0.023193,0.034912,-0.028564,0.,0.,0.,2.848145,-0.016113,0.052002,0.488281,169,183,92,225
49.532,14:53:18.532,-10.234375,-0.336914,-0.208984,0.023193,0.034912,-0.028564,0.,0.,0.,2.848145,-0.016113,0.052002,0.488281,169,183,92,225
49.632,14:53:18.632,-10.234375,-0.336914,-0.208984,0.023193,0.034912,-0.028564,0.,0.,0.,2.848145,-0.016113,0.052002,0.488281,169,183,92,225
49.732,14:53:18.732,-10.282227,0.051758,-0.250977,0.045654,0.29248,-0.051025,0.,0.,0.,2.917725,-0.008057,0.068359,0.484375,197,178,91,196
49.832,14:53:18.832,-10.727539,0.603516,1.035156,0.065918,-0.306396,0.075439,0.,0.,0.,2.930664,-0.00708,0.099854,0.429688,202,177,92,193
49.932,14:53:18.932,-10.617188,-0.408203,-0.944336,0.008301,-0.046631,-0.078613,0.,0.,0.,2.936523,-0.004639,0.074463,0.398438,204,177,91,190
50.032,14:53:19.032,-10.617188,-0.408203,-0.944336,0.008301,-0.046631,-0.078613,0.,0.,0.,2.936523,-0.004639,0.074463,0.398438,204,177,91,190
50.132,14:53:19.132,-10.875977,0.583984,-0.987305,0.039307,-0.030762,-0.092529,0.,0.,0.,2.943115,-0.003418,0.060791,0.394531,207,176,91,188
50.232,14:53:19.232,-10.875977,0.583984,-0.987305,0.039307,-0.030762,-0.092529,0.,0.,0.,2.943115,-0.003418,0.060791,0.394531,207,176,91,188
50.332,14:53:19.332,-11.177734,0.332031,-0.564453,0.009521,-0.061523,-0.014893,0.,0.,0.,2.94751,-0.005127,0.061035,0.402344,207,176,92,185
50.432,14:53:19.432,-11.177734,0.332031,-0.564453,0.009521,-0.061523,-0.014893,0.,0.,0.,2.94751,-0.005127,0.061035,0.402344,207,176,92,185
50.532,14:53:19.532,-9.46875,-0.260742,1.458008,0.02002,0.713867,-0.011475,0.,0.,0.,2.951904,-0.005127,0.0896,0.429688,207,175,93,183
50.632,14:53:19.632,-9.96582,0.541016,1.405273,0.02124,0.121094,-0.072266,0.,0.,0.,2.955566,-0.003906,0.114502,0.460938,209,175,93,182
50.732,14:53:19.732,-9.325195,0.40332,0.375,0.031738,0.0979,0.060547,0.,0.,0.,2.958984,0.001221,0.130859,0.484375,212,175,93,180
50.832,14:53:19.832,-9.325195,0.40332,0.375,0.031738,0.0979,0.060547,0.,0.,0.,2.958984,0.001221,0.130859,0.484375,212,175,93,180
50.932,14:53:19.932,-9.114258,-0.336914,-1.780273,0.009521,-0.009521,0.032959,0.,0.,0.,2.961426,0.003174,0.132812,0.496094,211,175,92,179
51.032,14:53:20.032,-9.612305,0.118164,-0.161133,0.015869,-0.077637,-0.012695,0.,0.,0.,2.974121,-0.026123,0.083008,0.511719,209,178,92,180
51.132,14:53:20.132,-9.291016,0.189453,-0.170898,0.008301,0.178711,-0.045654,0.,0.,0.,2.976562,-0.033691,0.089844,0.492188,208,177,92,180
51.232,14:53:20.232,-9.726562,0.066406,-0.046875,0.,0.131836,-0.078613,0.,0.,0.,2.979736,-0.034668,0.094482,0.503906,207,177,92,182
51.332,14:53:20.332,-9.726562,0.066406,-0.046875,0.,0.131836,-0.078613,0.,0.,0.,2.979736,-0.034668,0.094482,0.503906,207,177,92,182
51.432,14:53:20.432,-9.726562,0.066406,-0.046875,0.,0.131836,-0.078613,0.,0.,0.,2.979736,-0.034668,0.094482,0.503906,207,177,92,182
51.532,14:53:20.532,-11.029297,-0.484375,0.436523,-0.012695,0.003174,-0.010498,0.,0.,0.,3.00293,-0.039551,0.121826,0.441406,197,182,92,192
51.632,14:53:20.632,-11.029297,-0.484375,0.436523,-0.012695,0.003174,-0.010498,0.,0.,0.,3.00293,-0.039551,0.121826,0.441406,197,182,92,192
51.732,14:53:20.732,-11.723633,-0.270508,-0.602539,0.04248,-0.008301,0.015869,0.,0.,0.,3.008057,-0.046875,0.125488,0.4375,193,182,92,195
51.832,14:53:20.832,-11.723633,-0.270508,-0.602539,0.04248,-0.008301,0.015869,0.,0.,0.,3.008057,-0.046875,0.125488,0.4375,193,182,92,195
51.932,14:53:20.932,-10.209961,-0.137695,-1.80957,-0.033936,-0.579834,0.25,0.,0.,0.,3.012451,-0.044189,0.105957,0.457031,191,182,93,199
52.032,14:53:21.032,-10.209961,-0.137695,-1.80957,-0.033936,-0.579834,0.25,0.,0.,0.,3.012451,-0.044189,0.105957,0.457031,191,182,93,199
52.132,14:53:21.132,-10.209961,-0.137695,-1.80957,-0.033936,-0.579834,0.25,0.,0.,0.,3.012451,-0.044189,0.105957,0.457031,191,182,93,199
52.232,14:53:21.232,-9.90918,-0.370117,-1.091797,-0.02002,-0.052002,-0.05957,0.,0.,0.,3.026123,0.03418,0.030518,0.507812,149,170,110,214
52.332,14:53:21.332,-9.90918,-0.370117,-1.091797,-0.02002,-0.052002,-0.05957,0.,0.,0.,3.026123,0.03418,0.030518,0.507812,149,170,110,214
52.432,14:53:21.432,-9.952148,0.936523,0.469727,0.046631,0.197754,-0.688477,0.,0.,0.,3.029297,0.014893,0.043213,0.519531,136,165,112,255
52.532,14:53:21.532,-9.952148,0.936523,0.469727,0.046631,0.197754,-0.688477,0.,0.,0.,3.029297,0.014893,0.043213,0.519531,136,165,112,255
52.632,14:53:21.632,-9.650391,-0.12793,2.189453,-0.028564,-0.010498,-0.169189,0.,0.,0.,3.029541,-0.018555,0.053223,0.539062,130,164,113,259
52.732,14:53:21.732,-9.650391,-0.12793,2.189453,-0.028564,-0.010498,-0.169189,0.,0.,0.,3.029541,-0.018555,0.053223,0.539062,130,164,113,259
52.832,14:53:21.832,-8.870117,0.755859,0.123047,-0.039307,-0.13501,0.561768,0.,0.,0.,3.028564,-0.017334,0.05249,0.554688,125,163,113,263
52.932,14:53:21.932,-8.870117,0.755859,0.123047,-0.039307,-0.13501,0.561768,0.,0.,0.,3.028564,-0.017334,0.05249,0.554688,125,163,113,263
53.032,14:53:22.032,-8.870117,0.755859,0.123047,-0.039307,-0.13501,0.561768,0.,0.,0.,3.028564,-0.017334,0.05249,0.554688,125,163,113,263
53.132,14:53:22.132,-9.574219,0.356445,-1.675781,-0.023193,0.041504,-0.11377,0.,0.,0.,3.029785,0.003906,0.053223,0.542969,111,160,114,273
53.232,14:53:22.232,-9.574219,0.356445,-1.675781,-0.023193,0.041504,-0.11377,0.,0.,0.,3.029785,0.003906,0.053223,0.542969,111,160,114,273
53.332,14:53:22.332,-10.44043,0.769531,0.464844,0.013672,-0.139404,0.027588,0.,0.,0.,3.028076,0.010986,0.016602,0.53125,102,157,116,278
53.432,14:53:22.432,-9.9375,1.420898,-0.388672,-0.019043,-0.077637,-0.503174,0.,0.,0.,3.027588,0.006592,0.007324,0.527344,100,155,112,281
53.532,14:53:22.532,-9.813477,-0.969727,-1.552734,-0.057373,-0.05957,-0.073242,0.,0.,0.,3.027832,-0.029053,-0.00708,0.53125,97,154,107,282
53.632,14:53:22.632,-9.43457,0.46582,1.466797,0.016846,0.04248,0.196777,0.,0.,0.,3.026855,-0.043213,-0.01123,0.539062,95,153,109,284
53.732,14:53:22.732,-9.798828,0.912109,1.144531,-0.014893,0.029785,-0.17749,0.,0.,0.,3.026123,-0.0271,-0.011475,0.542969,93,152,113,285
53.832,14:53:22.832,-10.349609,0.432617,0.265625,-0.007324,0.147705,-0.297852,0.,0.,0.,3.026855,-0.027344,-0.004395,0.539062,92,152,114,285
53.932,14:53:22.932,-9.688477,0.779297,-0.574219,0.018066,0.108398,-0.003174,0.,0.,0.,3.026611,-0.043945,0.005371,0.535156,92,150,115,285
54.032,14:53:23.032,-9.688477,0.779297,-0.574219,0.018066,0.108398,-0.003174,0.,0.,0.,3.026611,-0.043945,0.005371,0.535156,92,150,115,285
54.132,14:53:23.132,-10.158203,0.436523,0.108398,0.016846,0.348877,-0.095703,0.,0.,0.,3.038086,0.02002,0.108154,0.519531,116,139,131,260
54.232,14:53:23.232,-10.158203,0.436523,0.108398,0.016846,0.348877,-0.095703,0.,0.,0.,3.038086,0.02002,0.108154,0.519531,116,139,131,260
54.332,14:53:23.332,-9.40625,-0.199219,-1.287109,0.011475,0.131836,-0.045654,0.,0.,0.,3.040527,0.018311,0.121826,0.53125,122,137,133,257
54.432,14:53:23.432,-9.40625,-0.199219,-1.287109,0.011475,0.131836,-0.045654,0.,0.,0.,3.040527,0.018311,0.121826,0.53125,122,137,133,257
54.532,14:53:23.532,-9.975586,0.613281,-0.146484,0.005127,0.25415,-0.000977,0.,0.,0.,3.042236,0.013916,0.14209,0.542969,124,137,134,254
54.632,14:53:23.632,-9.975586,0.613281,-0.146484,0.005127,0.25415,-0.000977,0.,0.,0.,3.042236,0.013916,0.14209,0.542969,124,137,134,254
54.732,14:53:23.732,-10.493164,0.041992,1.496094,0.019043,0.137207,-0.05835,0.,0.,0.,3.043945,0.011963,0.155029,0.542969,129,138,135,250
54.832,14:53:23.832,-10.493164,0.041992,1.496094,0.019043,0.137207,-0.05835,0.,0.,0.,3.043945,0.011963,0.155029,0.542969,129,138,135,250
54.932,14:53:23.932,-9.851562,0.146484,-0.626953,0.015869,-0.230713,-0.083008,0.,0.,0.,3.044922,0.010254,0.142822,0.546875,128,139,135,245
55.032,14:53:24.032,-9.9375,1.05957,1.695312,-0.006348,-0.052979,0.025391,0.,0.,0.,3.048096,0.007568,0.082031,0.546875,139,139,134,243
55.132,14:53:24.132,-9.9375,1.05957,1.695312,-0.006348,-0.052979,0.025391,0.,0.,0.,3.048096,0.007568,0.082031,0.546875,139,139,134,243
55.232,14:53:24.232,-9.779297,0.237305,0.797852,0.02124,0.116943,-0.181885,0.,0.,0.,3.049561,0.002686,0.074707,0.539062,139,140,134,243
55.332,14:53:24.332,-9.779297,0.237305,0.797852,0.02124,0.116943,-0.181885,0.,0.,0.,3.049561,0.002686,0.074707,0.539062,139,140,134,243
55.432,14:53:24.432,-9.980469,0.260742,-2.265625,-0.008301,0.007324,0.007324,0.,0.,0.,3.047119,-0.020996,0.114502,0.535156,140,144,129,246
55.532,14:53:24.532,-9.980469,0.260742,-2.265625,-0.008301,0.007324,0.007324,0.,0.,0.,3.047119,-0.020996,0.114502,0.535156,140,144,129,246
55.632,14:53:24.632,-10.148438,0.503906,2.217773,0.001953,0.04248,-0.075439,0.,0.,0.,3.047119,-0.017822,0.113525,0.53125,140,146,128,247
55.732,14:53:24.732,-10.148438,0.503906,2.217773,0.001953,0.04248,-0.075439,0.,0.,0.,3.047119,-0.017822,0.113525,0.53125,140,146,128,247
55.832,14:53:24.832,-10.023438,0.507812,-1.519531,-0.047852,-0.083008,-0.073242,0.,0.,0.,3.050049,-0.054688,0.075439,0.523438,127,151,119,265
55.932,14:53:24.932,-9.861328,0.166016,-0.788086,-0.047852,-0.293701,0.687256,0.,0.,0.,3.050293,-0.040771,0.060059,0.515625,121,151,118,269
56.032,14:53:25.032,-9.861328,0.166016,-0.788086,-0.047852,-0.293701,0.687256,0.,0.,0.,3.050293,-0.040771,0.060059,0.515625,121,151,118,269
56.132,14:53:25.132,-10.224609,-0.056641,-1.970703,-0.001953,-0.078613,-0.987549,0.,0.,0.,3.052002,-0.006836,0.037354,0.5,112,149,118,278
56.232,14:53:25.232,-10.224609,-0.056641,-1.970703,-0.001953,-0.078613,-0.987549,0.,0.,0.,3.052002,-0.006836,0.037354,0.5,112,149,118,278
56.332,14:53:25.332,-10.277344,-0.688477,-1.557617,-0.027588,0.039307,-0.073242,0.,0.,0.,3.05542,-0.049805,0.032227,0.5,108,148,118,284
56.432,14:53:25.432,-10.277344,-0.688477,-1.557617,-0.027588,0.039307,-0.073242,0.,0.,0.,3.05542,-0.049805,0.032227,0.5,108,148,118,284
56.532,14:53:25.532,-10.602539,0.066406,0.066406,-0.054199,-0.40332,1.003418,0.,0.,0.,3.05542,-0.042236,0.016113,0.503906,102,147,118,289
56.632,14:53:25.632,-10.186523,-1.22168,0.298828,-0.045654,-0.198975,-0.42334,0.,0.,0.,3.052002,-0.000244,-0.019043,0.511719,92,144,120,298
56.732,14:53:25.732,-9.501953,-0.285156,-0.569336,-0.014893,-0.088135,-0.065918,0.,0.,0.,3.051758,-0.004639,-0.023682,0.515625,88,143,121,298
56.832,14:53:25.832,-9.990234,0.318359,0.469727,0.009521,0.036133,0.052002,0.,0.,0.,3.051514,0.000977,-0.03125,0.539062,77,137,127,284
56.932,14:53:25.932,-9.162109,0.170898,-1.015625,0.011475,0.02002,0.036133,0.,0.,0.,3.052002,0.014648,-0.028809,0.539062,74,135,128,243
57.032,14:53:26.032,-9.861328,0.46582,0.731445,-0.02002,0.11377,0.022217,0.,0.,0.,3.052002,0.017578,-0.021973,0.53125,73,133,130,230
57.132,14:53:26.132,-9.861328,0.46582,0.731445,-0.02002,0.11377,0.022217,0.,0.,0.,3.052002,0.017578,-0.021973,0.53125,73,133,130,230
57.232,14:53:26.232,-9.257812,0.460938,-1.058594,0.022217,0.071289,-0.040283,0.,0.,0.,3.052734,0.018066,-0.012695,0.527344,73,132,131,230
57.332,14:53:26.332,-9.257812,0.460938,-1.058594,0.022217,0.071289,-0.040283,0.,0.,0.,3.052734,0.018066,-0.012695,0.527344,73,132,131,230
57.432,14:53:26.432,-9.257812,0.460938,-1.058594,0.022217,0.071289,-0.040283,0.,0.,0.,3.052734,0.018066,-0.012695,0.527344,73,132,131,230
57.532,14:53:26.532,-9.257812,0.460938,-1.058594,0.022217,0.071289,-0.040283,0.,0.,0.,3.052734,0.018066,-0.012695,0.527344,73,132,131,230
57.632,14:53:26.632,-9.257812,0.460938,-1.058594,0.022217,0.071289,-0.040283,0.,0.,0.,3.052734,0.018066,-0.012695,0.527344,73,132,131,230
57.732,14:53:26.732,-9.712891,0.265625,-0.455078,-0.028564,0.065918,-0.285156,0.,0.,0.,3.063232,-0.000244,0.112305,0.527344,120,128,144,262
57.832,14:53:26.832,-9.238281,0.089844,0.118164,-0.023193,-0.056396,-0.239258,0.,0.,0.,3.061768,-0.025879,0.113037,0.539062,131,131,143,252
57.932,14:53:26.932,-9.195312,-0.541016,-0.541016,-0.02002,0.070068,-0.1521,0.,0.,0.,3.0625,-0.031738,0.109619,0.542969,136,133,142,248
58.032,14:53:27.032,-9.37793,-0.227539,1.091797,-0.015869,0.062744,0.008301,0.,0.,0.,3.059326,-0.048096,0.054688,0.527344,150,133,141,235
58.132,14:53:27.132,-10.813477,0.570312,1.044922,-0.033936,-0.145752,0.558594,0.,0.,0.,3.058838,-0.0354,0.052979,0.519531,153,133,141,233
58.232,14:53:27.232,-10.813477,0.570312,1.044922,-0.033936,-0.145752,0.558594,0.,0.,0.,3.058838,-0.0354,0.052979,0.519531,153,133,141,233
58.332,14:53:27.332,-10.669922,-0.655273,-2.008789,0.013672,-0.029785,0.110596,0.,0.,0.,3.057373,-0.00293,0.049316,0.507812,154,133,143,230
58.432,14:53:27.432,-10.669922,-0.655273,-2.008789,0.013672,-0.029785,0.110596,0.,0.,0.,3.057373,-0.00293,0.049316,0.507812,154,133,143,230
58.532,14:53:27.532,-10.176758,0.575195,0.517578,0.040283,0.128662,-0.09668,0.,0.,0.,3.057129,0.011963,0.048828,0.492188,157,132,145,197
58.632,14:53:27.632,-10.176758,0.575195,0.517578,0.040283,0.128662,-0.09668,0.,0.,0.,3.057129,0.011963,0.048828,0.492188,157,132,145,197
58.732,14:53:27.732,-10.760742,0.807617,1.5625,0.009521,0.045654,0.010498,0.,0.,0.,3.057861,0.014893,0.047607,0.480469,159,131,145,149
58.832,14:53:27.832,-10.373047,-1.46875,-1.415039,-0.037109,0.479736,-0.039307,0.,0.,0.,3.057861,0.010742,0.072021,0.484375,162,128,145,177
58.932,14:53:27.932,-9.454102,0.878906,1.353516,-0.013672,0.222412,-0.075439,0.,0.,0.,3.05835,0.012207,0.119629,0.5,168,126,146,218
59.032,14:53:28.032,-9.803711,0.969727,-0.716797,0.019043,-0.074463,-0.120117,0.,0.,0.,3.059814,0.008545,0.052734,0.527344,177,121,148,208
59.132,14:53:28.132,-9.803711,0.969727,-0.716797,0.019043,-0.074463,-0.120117,0.,0.,0.,3.059814,0.008545,0.052734,0.527344,177,121,148,208
59.232,14:53:28.232,-9.678711,0.137695,-0.041992,-0.019043,-0.195801,-0.076416,0.,0.,0.,3.060059,0.01123,0.04248,0.527344,179,121,147,207
59.332,14:53:28.332,-9.678711,0.137695,-0.041992,-0.019043,-0.195801,-0.076416,0.,0.,0.,3.060059,0.01123,0.04248,0.527344,179,121,147,207
59.432,14:53:28.432,-9.678711,0.137695,-0.041992,-0.019043,-0.195801,-0.076416,0.,0.,0.,3.060059,0.01123,0.04248,0.527344,179,121,147,207
59.532,14:53:28.532,-9.678711,0.137695,-0.041992,-0.019043,-0.195801,-0.076416,0.,0.,0.,3.060059,0.01123,0.04248,0.527344,179,121,147,207
59.632,14:53:28.632,-10.602539,0.822266,1.761719,0.008301,0.218018,0.010498,0.,0.,0.,3.058594,0.008301,0.037842,0.527344,181,123,138,205
59.732,14:53:28.732,-10.602539,0.822266,1.761719,0.008301,0.218018,0.010498,0.,0.,0.,3.058594,0.008301,0.037842,0.527344,181,123,138,205
59.832,14:53:28.832,-9.587891,0.494141,-0.72168,-0.011475,-0.00415,0.013672,0.,0.,0.,3.059814,0.007568,0.047607,0.53125,182,124,115,204
59.932,14:53:28.932,-9.587891,0.494141,-0.72168,-0.011475,-0.00415,0.013672,0.,0.,0.,3.059814,0.007568,0.047607,0.53125,182,124,115,204
60.032,14:53:29.032,-9.712891,-1.045898,-0.579102,-0.00415,0.298828,-0.056396,0.,0.,0.,3.05957,0.008545,0.070068,0.535156,183,124,114,202
60.132,14:53:29.132,-9.554688,-0.598633,0.365234,-0.062744,-0.093506,-0.111572,0.,0.,0.,3.056396,-0.013672,0.088379,0.539062,187,127,137,200
60.232,14:53:29.232,-10.038086,0.170898,0.408203,-0.003174,0.043457,-0.195801,0.,0.,0.,3.054688,-0.022949,0.084961,0.550781,189,128,135,197
60.332,14:53:29.332,-10.038086,0.170898,0.408203,-0.003174,0.043457,-0.195801,0.,0.,0.,3.054688,-0.022949,0.084961,0.550781,189,128,135,197
60.432,14:53:29.432,-10.420898,-0.161133,-0.697266,-0.067871,-0.044678,0.071289,0.,0.,0.,3.029297,-0.043213,0.044922,0.558594,197,125,127,190
60.532,14:53:29.532,-10.420898,-0.161133,-0.697266,-0.067871,-0.044678,0.071289,0.,0.,0.,3.029297,-0.043213,0.044922,0.558594,197,125,127,190
60.632,14:53:29.632,-10.277344,0.441406,-0.327148,-0.047852,0.016846,0.015869,0.,0.,0.,3.026855,-0.036865,0.046631,0.554688,198,129,127,189
60.732,14:53:29.732,-10.277344,0.441406,-0.327148,-0.047852,0.016846,0.015869,0.,0.,0.,3.026855,-0.036865,0.046631,0.554688,198,129,127,189
60.832,14:53:29.832,-10.09082,-0.517578,-0.574219,-0.074463,0.05835,0.287109,0.,0.,0.,3.02417,-0.028809,0.046875,0.550781,198,137,127,188
60.932,14:53:29.932,-10.09082,-0.517578,-0.574219,-0.074463,0.05835,0.287109,0.,0.,0.,3.02417,-0.028809,0.046875,0.550781,198,137,127,188
61.032,14:53:30.032,-9.46875,-0.041992,-1.229492,-0.027588,0.015869,0.015869,0.,0.,0.,3.022217,0.002441,0.047363,0.546875,198,136,129,187
61.132,14:53:30.132,-9.46875,-0.041992,-1.229492,-0.027588,0.015869,0.015869,0.,0.,0.,3.022217,0.002441,0.047363,0.546875,198,136,129,187
61.232,14:53:30.232,-10.004883,-1.240234,0.061523,-0.022217,-0.029785,0.012695,0.,0.,0.,3.02124,0.019043,0.047119,0.539062,198,136,129,185
61.332,14:53:30.332,-9.712891,0.151367,-0.897461,-0.073242,-0.083984,1.0354,0.,0.,0.,3.021484,0.065186,0.047363,0.550781,203,131,134,179
61.432,14:53:30.432,-9.693359,-0.555664,-0.507812,0.02124,0.054199,0.343506,0.,0.,0.,3.020996,0.10791,0.047119,0.546875,205,130,134,177
61.532,14:53:30.532,-10.09082,-2.020508,-2.18457,-0.099854,-0.025391,-0.780029,0.,0.,0.,3.017822,-0.026367,0.047607,0.554688,209,130,135,172
61.632,14:53:30.632,-9.917969,-0.898438,0.179688,-0.104248,-0.052002,0.553223,0.,0.,0.,3.014404,-0.052979,0.048828,0.578125,211,130,132,169
61.732,14:53:30.732,-9.917969,-0.898438,0.179688,-0.104248,-0.052002,0.553223,0.,0.,0.,3.014404,-0.052979,0.048828,0.578125,211,130,132,169
61.832,14:53:30.832,-9.114258,-0.512695,0.768555,-0.081787,0.102051,0.131836,0.,0.,0.,3.009521,-0.036621,0.048584,0.585938,214,98,131,167
61.932,14:53:30.932,-9.114258,-0.512695,0.768555,-0.081787,0.102051,0.131836,0.,0.,0.,3.009521,-0.036621,0.048584,0.585938,214,98,131,167
62.032,14:53:31.032,-9.678711,-0.512695,0.208984,-0.05957,-0.003174,0.430908,0.,0.,0.,3.007568,-0.008301,0.049316,0.585938,217,77,129,164
62.132,14:53:31.132,-9.381836,0.161133,0.626953,-0.016846,0.093506,0.11792,0.,0.,0.,3.005859,0.068604,0.052979,0.5625,229,135,127,152
62.232,14:53:31.232,-9.381836,0.161133,0.626953,-0.016846,0.093506,0.11792,0.,0.,0.,3.005859,0.068604,0.052979,0.5625,229,135,127,152
62.332,14:53:31.332,-9.381836,0.161133,0.626953,-0.016846,0.093506,0.11792,0.,0.,0.,3.005859,0.068604,0.052979,0.5625,229,135,127,152
62.432,14:53:31.432,-10.966797,0.978516,0.008789,-0.089355,0.578857,-0.005127,0.,0.,0.,2.948486,-0.037842,0.075195,0.546875,281,158,100,107
62.532,14:53:31.532,-8.645508,-0.089844,-1.229492,-0.116943,0.043457,0.029785,0.,0.,0.,2.915771,-0.034424,0.148193,0.535156,239,159,95,93
62.632,14:53:31.632,-8.645508,-0.089844,-1.229492,-0.116943,0.043457,0.029785,0.,0.,0.,2.915771,-0.034424,0.148193,0.535156,239,159,95,93
62.732,14:53:31.732,-7.180664,0.441406,1.884766,-0.11377,0.041504,-0.099854,0.,0.,0.,2.907471,-0.029053,0.154053,0.535156,239,159,95,91
62.832,14:53:31.832,-7.180664,0.441406,1.884766,-0.11377,0.041504,-0.099854,0.,0.,0.,2.907471,-0.029053,0.154053,0.535156,239,159,95,91
62.932,14:53:31.932,-7.180664,0.441406,1.884766,-0.11377,0.041504,-0.099854,0.,0.,0.,2.907471,-0.029053,0.154053,0.535156,239,159,95,91
63.032,14:53:32.032,-7.180664,0.441406,1.884766,-0.11377,0.041504,-0.099854,0.,0.,0.,2.907471,-0.029053,0.154053,0.535156,239,159,95,91
63.132,14:53:32.132,-8.908203,0.204102,0.265625,-0.112793,-0.052979,-0.015869,0.,0.,0.,2.886719,-0.013672,0.147949,0.425781,239,160,95,87
