Time,UTC,FINKEN_SENSOR_MODEL:acceleration_z,FINKEN_SENSOR_MODEL:acceleration_y,FINKEN_SENSOR_MODEL:acceleration_x,FINKEN_SENSOR_MODEL:velocity_yaw,FINKEN_SENSOR_MODEL:velocity_roll,FINKEN_SENSOR_MODEL:velocity_pitch,FINKEN_SENSOR_MODEL:velocity_z,FINKEN_SENSOR_MODEL:velocity_y,FINKEN_SENSOR_MODEL:velocity_x,FINKEN_SENSOR_MODEL:pos_yaw,FINKEN_SENSOR_MODEL:pos_roll,FINKEN_SENSOR_MODEL:pos_pitch,FINKEN_SENSOR_MODEL:pos_z,FINKEN_SENSOR_MODEL:distance_d_back,FINKEN_SENSOR_MODEL:distance_d_left,FINKEN_SENSOR_MODEL:distance_d_rigth,FINKEN_SENSOR_MODEL:distance_d_front
1.273,11:25:51.273,-9.870117,0.066406,0.15625,-0.014893,0.007324,-0.025391,0.,0.,0.,2.820801,-0.01123,0.053711,0.242188,101,47,51,294
1.373,11:25:51.373,-9.927734,0.132812,0.108398,-0.013672,0.010498,-0.028564,0.,0.,0.,2.820801,-0.01123,0.053711,0.246094,101,46,51,275
1.473,11:25:51.473,-9.952148,0.089844,0.084961,-0.009521,0.009521,-0.028564,0.,0.,0.,2.820801,-0.01123,0.053711,0.246094,101,46,51,220
1.573,11:25:51.573,-9.952148,0.089844,0.084961,-0.009521,0.009521,-0.028564,0.,0.,0.,2.820801,-0.01123,0.053711,0.246094,101,46,51,220
1.673,11:25:51.673,-9.904297,0.051758,0.089844,-0.012695,0.006348,-0.029785,0.,0.,0.,2.820801,-0.01123,0.053711,0.242188,101,46,51,275
1.773,11:25:51.773,-9.904297,0.051758,0.089844,-0.012695,0.006348,-0.029785,0.,0.,0.,2.820801,-0.01123,0.053711,0.242188,101,46,51,275
1.873,11:25:51.873,-9.947266,0.132812,0.099609,-0.011475,0.009521,-0.026367,0.,0.,0.,2.820801,-0.010986,0.053711,0.242188,101,46,51,294
1.973,11:25:51.973,-10.047852,0.118164,0.137695,-0.016846,0.010498,-0.025391,0.,0.,0.,2.821045,-0.010986,0.053711,0.242188,101,46,51,294
2.073,11:25:52.073,-9.975586,0.051758,0.146484,-0.011475,0.009521,-0.027588,0.,0.,0.,2.821045,-0.010986,0.053711,0.242188,101,46,51,294
2.173,11:25:52.173,-9.917969,0.084961,0.108398,-0.012695,0.009521,-0.026367,0.,0.,0.,2.820801,-0.010986,0.053711,0.246094,101,46,51,275
2.273,11:25:52.273,-9.995117,0.037109,0.104492,-0.012695,0.008301,-0.028564,0.,0.,0.,2.820801,-0.01123,0.053711,0.242188,102,46,51,221
2.373,11:25:52.373,-9.90918,0.018555,0.12793,-0.013672,0.013672,-0.025391,0.,0.,0.,2.821045,-0.01123,0.053711,0.242188,102,46,51,221
2.473,11:25:52.473,-9.904297,0.118164,0.070312,-0.011475,0.010498,-0.025391,0.,0.,0.,2.821045,-0.01123,0.053711,0.242188,102,46,51,275
2.573,11:25:52.573,-9.904297,0.118164,0.070312,-0.011475,0.010498,-0.025391,0.,0.,0.,2.821045,-0.01123,0.053711,0.242188,102,46,51,275
2.673,11:25:52.673,-9.914062,0.137695,0.099609,-0.011475,0.011475,-0.027588,0.,0.,0.,2.821045,-0.01123,0.053711,0.246094,101,46,51,294
2.773,11:25:52.773,-9.884766,0.061523,0.104492,-0.010498,0.009521,-0.027588,0.,0.,0.,2.821045,-0.01123,0.053711,0.246094,101,46,51,294
2.873,11:25:52.873,-9.985352,0.094727,0.084961,-0.010498,0.00415,-0.028564,0.,0.,0.,2.820801,-0.01123,0.053711,0.242188,101,46,51,294
2.973,11:25:52.973,-9.975586,0.023438,0.146484,-0.008301,0.011475,-0.027588,0.,0.,0.,2.821045,-0.01123,0.053711,0.242188,101,46,51,294
3.073,11:25:53.073,-9.904297,0.084961,0.179688,-0.012695,0.006348,-0.027588,0.,0.,0.,2.821045,-0.01123,0.053711,0.246094,101,46,51,294
3.173,11:25:53.173,-9.904297,0.123047,0.123047,-0.011475,0.008301,-0.024414,0.,0.,0.,2.821045,-0.01123,0.053711,0.242188,101,46,51,294
3.273,11:25:53.273,-9.894531,0.099609,0.056641,-0.010498,0.010498,-0.027588,0.,0.,0.,2.821045,-0.01123,0.053711,0.242188,101,46,51,294
3.373,11:25:53.373,-9.975586,0.099609,0.146484,-0.012695,0.009521,-0.026367,0.,0.,0.,2.821045,-0.01123,0.053711,0.246094,101,46,51,294
3.473,11:25:53.473,-10.014648,0.089844,0.099609,-0.011475,0.007324,-0.026367,0.,0.,0.,2.821045,-0.01123,0.053711,0.242188,101,47,51,294
3.573,11:25:53.573,-10.014648,0.089844,0.099609,-0.011475,0.007324,-0.026367,0.,0.,0.,2.821045,-0.01123,0.053711,0.242188,101,47,51,294
3.673,11:25:53.673,-9.995117,0.046875,0.104492,-0.013672,0.009521,-0.027588,0.,0.,0.,2.821045,-0.01123,0.053711,0.242188,101,46,51,294
3.773,11:25:53.773,-9.884766,0.118164,0.204102,-0.011475,0.005127,-0.026367,0.,0.,0.,2.821045,-0.01123,0.053467,0.242188,101,46,51,294
3.873,11:25:53.873,-9.841797,0.099609,0.166016,-0.015869,0.010498,-0.028564,0.,0.,0.,2.821045,-0.01123,0.053467,0.246094,101,46,51,295
3.973,11:25:53.973,-9.841797,0.089844,0.084961,-0.012695,0.010498,-0.029785,0.,0.,0.,2.821045,-0.01123,0.053467,0.246094,101,46,51,294
4.073,11:25:54.073,-9.952148,0.132812,0.137695,-0.012695,0.006348,-0.025391,0.,0.,0.,2.821289,-0.01123,0.053467,0.246094,101,46,51,294
4.173,11:25:54.173,-9.813477,0.146484,0.075195,-0.012695,0.009521,-0.026367,0.,0.,0.,2.821045,-0.010986,0.053467,0.246094,101,46,51,294
4.273,11:25:54.273,-9.90918,0.12793,0.023438,-0.012695,0.009521,-0.029785,0.,0.,0.,2.820801,-0.010986,0.053467,0.242188,101,46,51,294
4.373,11:25:54.373,-9.9375,0.089844,0.141602,-0.010498,0.009521,-0.024414,0.,0.,0.,2.821045,-0.010986,0.053467,0.242188,102,46,51,294
4.473,11:25:54.473,-9.875,0.179688,0.113281,-0.010498,0.007324,-0.028564,0.,0.,0.,2.821045,-0.01123,0.053467,0.242188,101,46,51,294
4.573,11:25:54.573,-9.875,0.179688,0.113281,-0.010498,0.007324,-0.028564,0.,0.,0.,2.821045,-0.01123,0.053467,0.242188,101,46,51,294
4.673,11:25:54.673,-9.889648,0.089844,0.089844,-0.010498,0.011475,-0.025391,0.,0.,0.,2.820801,-0.010986,0.053467,0.242188,101,46,51,294
4.773,11:25:54.773,-9.827148,0.151367,0.075195,-0.011475,0.007324,-0.028564,0.,0.,0.,2.820801,-0.01123,0.053467,0.246094,101,46,51,294
4.873,11:25:54.873,-9.889648,0.175781,0.108398,-0.010498,0.008301,-0.030762,0.,0.,0.,2.821045,-0.01123,0.053467,0.242188,101,46,51,294
4.973,11:25:54.973,-9.904297,0.113281,0.089844,-0.012695,0.006348,-0.026367,0.,0.,0.,2.821045,-0.01123,0.053467,0.242188,101,46,51,294
5.073,11:25:55.073,-10.047852,0.189453,0.033203,-0.015869,0.011475,-0.029785,0.,0.,0.,2.821045,-0.01123,0.053467,0.242188,101,46,51,294
5.173,11:25:55.173,-9.922852,0.075195,0.023438,-0.013672,0.010498,-0.027588,0.,0.,0.,2.821045,-0.01123,0.053467,0.242188,101,46,51,294
5.273,11:25:55.273,-9.922852,0.132812,0.104492,-0.009521,0.008301,-0.030762,0.,0.,0.,2.821045,-0.01123,0.053467,0.242188,101,46,51,294
5.373,11:25:55.373,-9.914062,0.146484,0.118164,-0.012695,0.010498,-0.026367,0.,0.,0.,2.821289,-0.01123,0.053467,0.246094,101,46,51,294
5.473,11:25:55.473,-9.90918,0.089844,0.075195,-0.010498,0.009521,-0.022217,0.,0.,0.,2.821289,-0.01123,0.053467,0.242188,101,46,51,294
5.573,11:25:55.573,-9.90918,0.089844,0.075195,-0.010498,0.009521,-0.022217,0.,0.,0.,2.821289,-0.01123,0.053467,0.242188,101,46,51,294
5.673,11:25:55.673,-9.980469,0.089844,0.161133,-0.014893,0.009521,-0.029785,0.,0.,0.,2.821289,-0.01123,0.053467,0.242188,102,46,51,294
5.773,11:25:55.773,-9.975586,0.094727,0.075195,-0.011475,0.010498,-0.027588,0.,0.,0.,2.821289,-0.01123,0.053467,0.242188,102,46,51,294
5.873,11:25:55.873,-9.952148,0.046875,0.051758,-0.010498,0.006348,-0.026367,0.,0.,0.,2.821289,-0.01123,0.053467,0.242188,102,46,51,294
5.973,11:25:55.973,-9.975586,0.118164,0.080078,-0.012695,0.010498,-0.027588,0.,0.,0.,2.821289,-0.01123,0.053467,0.242188,102,46,51,294
6.073,11:25:56.073,-9.975586,0.118164,0.080078,-0.012695,0.010498,-0.027588,0.,0.,0.,2.821289,-0.01123,0.053467,0.242188,102,46,51,294
6.173,11:25:56.173,-9.866211,0.146484,-0.013672,-0.012695,0.008301,-0.025391,0.,0.,0.,2.821289,-0.01123,0.053467,0.242188,101,46,51,294
6.273,11:25:56.273,-9.866211,0.146484,-0.013672,-0.012695,0.008301,-0.025391,0.,0.,0.,2.821289,-0.01123,0.053467,0.242188,101,46,51,294
6.373,11:25:56.373,-9.914062,0.071289,0.056641,-0.012695,0.008301,-0.028564,0.,0.,0.,2.821289,-0.01123,0.053467,0.246094,101,46,51,294
6.473,11:25:56.473,-9.914062,0.071289,0.056641,-0.012695,0.008301,-0.028564,0.,0.,0.,2.821289,-0.01123,0.053467,0.246094,101,46,51,294
6.573,11:25:56.573,-9.995117,0.118164,0.146484,-0.012695,0.008301,-0.026367,0.,0.,0.,2.821289,-0.01123,0.053467,0.242188,101,46,51,294
6.673,11:25:56.673,-9.995117,0.161133,0.037109,-0.010498,0.009521,-0.029785,0.,0.,0.,2.821289,-0.01123,0.053467,0.242188,101,46,51,294
6.773,11:25:56.773,-10.023438,0.142578,0.137695,-0.012695,0.008301,-0.027588,0.,0.,0.,2.821289,-0.01123,0.053467,0.242188,101,46,51,294
6.873,11:25:56.873,-10.023438,0.142578,0.137695,-0.012695,0.008301,-0.027588,0.,0.,0.,2.821289,-0.01123,0.053467,0.242188,101,46,51,294
6.973,11:25:56.973,-9.870117,0.094727,0.146484,-0.011475,0.009521,-0.025391,0.,0.,0.,2.821289,-0.011475,0.053467,0.242188,101,46,51,294
7.073,11:25:57.073,-9.870117,0.094727,0.146484,-0.011475,0.009521,-0.025391,0.,0.,0.,2.821289,-0.011475,0.053467,0.242188,101,46,51,294
7.173,11:25:57.173,-9.899414,0.071289,0.046875,-0.015869,0.010498,-0.028564,0.,0.,0.,2.821533,-0.011475,0.053467,0.242188,101,46,51,294
7.273,11:25:57.273,-9.899414,0.071289,0.046875,-0.015869,0.010498,-0.028564,0.,0.,0.,2.821533,-0.011475,0.053467,0.242188,101,46,51,294
7.373,11:25:57.373,-9.9375,0.118164,0.070312,-0.011475,0.010498,-0.029785,0.,0.,0.,2.821533,-0.011475,0.053467,0.242188,101,46,51,294
7.473,11:25:57.473,-9.9375,0.118164,0.070312,-0.011475,0.010498,-0.029785,0.,0.,0.,2.821533,-0.011475,0.053467,0.242188,101,46,51,294
7.573,11:25:57.573,-9.9375,0.118164,0.070312,-0.011475,0.010498,-0.029785,0.,0.,0.,2.821533,-0.011475,0.053467,0.242188,101,46,51,294
7.673,11:25:57.673,-9.894531,0.12793,0.104492,-0.011475,0.011475,-0.026367,0.,0.,0.,2.821289,-0.011475,0.053467,0.242188,102,46,51,294
7.773,11:25:57.773,-9.961914,0.013672,0.056641,-0.012695,0.010498,-0.029785,0.,0.,0.,2.821289,-0.011475,0.053467,0.242188,102,46,51,294
7.873,11:25:57.873,-9.889648,0.132812,0.174805,-0.014893,0.007324,-0.029785,0.,0.,0.,2.821289,-0.011475,0.053467,0.242188,102,46,51,294
7.973,11:25:57.973,-9.957031,0.075195,0.061523,-0.014893,0.011475,-0.029785,0.,0.,0.,2.821289,-0.011475,0.053467,0.246094,102,46,51,294
8.073,11:25:58.073,-9.952148,0.104492,0.118164,-0.014893,0.009521,-0.028564,0.,0.,0.,2.821289,-0.011475,0.053467,0.242188,102,46,51,294
8.173,11:25:58.173,-9.904297,0.12793,0.108398,-0.012695,0.007324,-0.026367,0.,0.,0.,2.821289,-0.011475,0.053467,0.242188,102,46,51,294
8.273,11:25:58.273,-9.856445,0.113281,0.094727,-0.011475,0.008301,-0.026367,0.,0.,0.,2.821289,-0.011475,0.053467,0.242188,102,46,51,294
8.373,11:25:58.373,-9.995117,0.137695,0.046875,-0.010498,0.010498,-0.025391,0.,0.,0.,2.821289,-0.011475,0.053467,0.242188,101,46,51,294
8.473,11:25:58.473,-9.894531,0.213867,0.118164,-0.013672,0.00415,-0.026367,0.,0.,0.,2.821289,-0.011475,0.053467,0.242188,101,46,51,294
8.573,11:25:58.573,-9.866211,0.137695,0.146484,-0.011475,0.008301,-0.025391,0.,0.,0.,2.821289,-0.011475,0.053467,0.242188,101,46,51,294
8.673,11:25:58.673,-9.922852,0.146484,0.094727,-0.011475,0.008301,-0.027588,0.,0.,0.,2.821289,-0.011475,0.053467,0.246094,101,46,51,294
8.773,11:25:58.773,-9.980469,0.041992,0.146484,-0.012695,0.008301,-0.028564,0.,0.,0.,2.821289,-0.011475,0.053467,0.242188,101,46,51,295
8.873,11:25:58.873,-9.980469,0.041992,0.146484,-0.012695,0.008301,-0.028564,0.,0.,0.,2.821289,-0.011475,0.053467,0.242188,101,46,51,295
8.973,11:25:58.973,-9.947266,0.089844,0.146484,-0.012695,0.006348,-0.028564,0.,0.,0.,2.821289,-0.011475,0.053467,0.246094,101,46,51,258
9.073,11:25:59.073,-9.947266,0.089844,0.146484,-0.012695,0.006348,-0.028564,0.,0.,0.,2.821289,-0.011475,0.053467,0.246094,101,46,51,258
9.173,11:25:59.173,-9.90918,0.108398,0.123047,-0.012695,0.005127,-0.028564,0.,0.,0.,2.821289,-0.011475,0.053467,0.246094,101,46,51,203
9.273,11:25:59.273,-9.90918,0.108398,0.123047,-0.012695,0.005127,-0.028564,0.,0.,0.,2.821289,-0.011475,0.053467,0.246094,101,46,51,203
9.373,11:25:59.373,-9.917969,0.056641,0.146484,-0.012695,0.009521,-0.027588,0.,0.,0.,2.821289,-0.011475,0.053467,0.242188,101,46,51,239
9.473,11:25:59.473,-9.917969,0.056641,0.146484,-0.012695,0.009521,-0.027588,0.,0.,0.,2.821289,-0.011475,0.053467,0.242188,101,46,51,239
9.573,11:25:59.573,-9.9375,0.142578,0.084961,-0.013672,0.010498,-0.028564,0.,0.,0.,2.821289,-0.011475,0.053467,0.242188,101,46,51,294
9.673,11:25:59.673,-9.84668,0.089844,0.174805,-0.015869,0.006348,-0.028564,0.,0.,0.,2.821533,-0.011475,0.053467,0.242188,101,46,51,294
9.773,11:25:59.773,-10.,0.071289,0.075195,-0.011475,0.011475,-0.027588,0.,0.,0.,2.821533,-0.011475,0.053467,0.242188,101,46,51,294
9.873,11:25:59.873,-9.952148,0.113281,0.089844,-0.012695,0.006348,-0.026367,0.,0.,0.,2.821533,-0.011475,0.053467,0.242188,101,46,51,294
9.973,11:25:59.973,-9.904297,0.118164,0.080078,-0.013672,0.010498,-0.026367,0.,0.,0.,2.821289,-0.011475,0.053467,0.242188,101,46,51,294
10.073,11:26:0.073,-9.866211,0.118164,0.041992,-0.011475,0.008301,-0.025391,0.,0.,0.,2.821289,-0.011475,0.053467,0.242188,102,46,51,294
10.173,11:26:0.173,-9.914062,0.089844,0.080078,-0.011475,0.006348,-0.029785,0.,0.,0.,2.821289,-0.011475,0.053467,0.242188,102,46,51,294
10.273,11:26:0.273,-9.914062,0.089844,0.080078,-0.011475,0.006348,-0.029785,0.,0.,0.,2.821289,-0.011475,0.053467,0.242188,102,46,51,294
10.373,11:26:0.373,-9.917969,0.066406,0.070312,-0.012695,0.010498,-0.029785,0.,0.,0.,2.821289,-0.011475,0.053467,0.246094,102,46,51,294
10.473,11:26:0.473,-9.917969,0.066406,0.070312,-0.012695,0.010498,-0.029785,0.,0.,0.,2.821289,-0.011475,0.053467,0.246094,102,46,51,294
10.573,11:26:0.573,-9.813477,0.161133,0.151367,-0.011475,0.009521,-0.028564,0.,0.,0.,2.821289,-0.011475,0.053467,0.242188,101,46,51,294
10.673,11:26:0.673,-10.009766,0.080078,0.094727,-0.013672,0.010498,-0.027588,0.,0.,0.,2.821289,-0.011475,0.053711,0.246094,101,46,51,294
10.773,11:26:0.773,-10.009766,0.080078,0.094727,-0.013672,0.010498,-0.027588,0.,0.,0.,2.821289,-0.011475,0.053711,0.246094,101,46,51,294
10.873,11:26:0.873,-9.889648,0.113281,0.084961,-0.013672,0.010498,-0.030762,0.,0.,0.,2.821289,-0.011475,0.053711,0.246094,101,46,51,294
10.973,11:26:0.973,-9.889648,0.113281,0.084961,-0.013672,0.010498,-0.030762,0.,0.,0.,2.821289,-0.011475,0.053711,0.246094,101,46,51,294
11.073,11:26:1.073,-9.884766,0.071289,0.061523,-0.012695,0.009521,-0.030762,0.,0.,0.,2.821289,-0.011475,0.053711,0.246094,101,46,51,294
11.173,11:26:1.173,-9.922852,0.033203,0.056641,-0.011475,0.008301,-0.028564,0.,0.,0.,2.821289,-0.011475,0.053711,0.242188,101,46,51,294
11.273,11:26:1.273,-9.917969,0.089844,0.061523,-0.011475,0.010498,-0.027588,0.,0.,0.,2.821289,-0.011475,0.053955,0.242188,101,46,51,294
11.373,11:26:1.373,-9.818359,0.099609,0.113281,-0.011475,0.006348,-0.028564,0.,0.,0.,2.821289,-0.011475,0.053711,0.246094,101,46,51,294
11.473,11:26:1.473,-9.899414,0.161133,0.104492,-0.011475,0.010498,-0.027588,0.,0.,0.,2.821289,-0.011475,0.053955,0.242188,101,46,51,294
11.573,11:26:1.573,-9.884766,0.071289,0.037109,-0.010498,0.008301,-0.025391,0.,0.,0.,2.821045,-0.011475,0.053955,0.246094,102,46,51,294
11.673,11:26:1.673,-9.861328,0.108398,0.051758,-0.012695,0.008301,-0.026367,0.,0.,0.,2.821045,-0.011475,0.053955,0.242188,102,46,51,294
11.773,11:26:1.773,-9.875,0.113281,0.104492,-0.013672,0.007324,-0.031738,0.,0.,0.,2.821045,-0.011475,0.053955,0.242188,102,46,51,294
11.873,11:26:1.873,-9.899414,0.132812,0.018555,-0.010498,0.009521,-0.024414,0.,0.,0.,2.821045,-0.011475,0.053955,0.246094,101,46,51,294
11.973,11:26:1.973,-9.899414,0.132812,0.018555,-0.010498,0.009521,-0.024414,0.,0.,0.,2.821045,-0.011475,0.053955,0.246094,101,46,51,294
12.073,11:26:2.073,-9.922852,0.033203,0.084961,-0.012695,0.008301,-0.026367,0.,0.,0.,2.821045,-0.011475,0.053955,0.242188,101,46,51,294
12.173,11:26:2.173,-9.922852,0.033203,0.084961,-0.012695,0.008301,-0.026367,0.,0.,0.,2.821045,-0.011475,0.053955,0.242188,101,46,51,294
12.273,11:26:2.273,-10.009766,0.132812,0.099609,-0.015869,0.009521,-0.029785,0.,0.,0.,2.821045,-0.011475,0.053955,0.242188,101,46,51,294
12.373,11:26:2.373,-10.009766,0.132812,0.099609,-0.015869,0.009521,-0.029785,0.,0.,0.,2.821045,-0.011475,0.053955,0.242188,101,46,51,294
12.473,11:26:2.473,-9.904297,0.15625,0.132812,-0.014893,0.011475,-0.027588,0.,0.,0.,2.821045,-0.011475,0.054199,0.242188,101,46,51,294
12.573,11:26:2.573,-9.932617,0.12793,0.084961,-0.010498,0.009521,-0.028564,0.,0.,0.,2.821045,-0.011475,0.054199,0.242188,101,46,51,294
12.673,11:26:2.673,-9.808594,0.104492,0.137695,-0.013672,0.009521,-0.028564,0.,0.,0.,2.821045,-0.011475,0.054199,0.242188,101,46,51,294
12.773,11:26:2.773,-9.884766,0.108398,0.089844,-0.011475,0.008301,-0.026367,0.,0.,0.,2.821045,-0.011475,0.054199,0.242188,101,46,51,294
12.873,11:26:2.873,-9.884766,0.108398,0.089844,-0.011475,0.008301,-0.026367,0.,0.,0.,2.821045,-0.011475,0.054199,0.242188,101,46,51,294
12.973,11:26:2.973,-9.975586,0.137695,0.146484,-0.012695,0.010498,-0.028564,0.,0.,0.,2.821045,-0.011475,0.054199,0.242188,101,46,51,294
13.073,11:26:3.073,-9.975586,0.137695,0.146484,-0.012695,0.010498,-0.028564,0.,0.,0.,2.821045,-0.011475,0.054199,0.242188,101,46,51,294
13.173,11:26:3.173,-9.985352,0.146484,0.118164,-0.014893,0.010498,-0.025391,0.,0.,0.,2.821045,-0.011475,0.054199,0.242188,101,46,51,294
13.273,11:26:3.273,-9.985352,0.146484,0.118164,-0.014893,0.010498,-0.025391,0.,0.,0.,2.821045,-0.011475,0.054199,0.242188,101,46,51,294
13.373,11:26:3.373,-9.741211,0.151367,0.123047,-0.012695,0.009521,-0.030762,0.,0.,0.,2.821045,-0.011475,0.054199,0.242188,101,46,51,294
13.473,11:26:3.473,-9.741211,0.151367,0.123047,-0.012695,0.009521,-0.030762,0.,0.,0.,2.821045,-0.011475,0.054199,0.242188,101,46,51,294
13.573,11:26:3.573,-9.942383,0.099609,0.084961,-0.012695,0.00415,-0.026367,0.,0.,0.,2.820801,-0.011475,0.054199,0.242188,101,46,51,294
13.673,11:26:3.673,-9.922852,0.02832,0.094727,-0.010498,0.007324,-0.027588,0.,0.,0.,2.821045,-0.011475,0.054199,0.246094,101,46,51,295
13.773,11:26:3.773,-9.914062,0.118164,0.113281,-0.013672,0.010498,-0.030762,0.,0.,0.,2.821045,-0.011475,0.054199,0.242188,101,46,51,295
13.873,11:26:3.873,-9.875,0.123047,0.033203,-0.013672,0.007324,-0.026367,0.,0.,0.,2.820801,-0.011475,0.054199,0.242188,101,46,51,295
13.973,11:26:3.973,-10.004883,0.189453,0.099609,-0.011475,0.011475,-0.025391,0.,0.,0.,2.820801,-0.011475,0.054199,0.242188,101,46,51,294
14.073,11:26:4.073,-9.917969,0.075195,0.041992,-0.013672,0.012695,-0.027588,0.,0.,0.,2.820801,-0.011475,0.054199,0.242188,101,46,51,294
14.173,11:26:4.173,-9.932617,0.123047,0.075195,-0.011475,0.010498,-0.026367,0.,0.,0.,2.820801,-0.011475,0.054199,0.242188,101,46,51,294
14.273,11:26:4.273,-9.899414,0.084961,0.084961,-0.010498,0.011475,-0.027588,0.,0.,0.,2.820801,-0.011475,0.054199,0.246094,101,46,51,294
14.373,11:26:4.373,-9.84668,0.056641,0.066406,-0.012695,0.011475,-0.028564,0.,0.,0.,2.820801,-0.011475,0.054199,0.242188,101,46,51,294
14.473,11:26:4.473,-9.808594,0.161133,0.118164,-0.011475,0.010498,-0.027588,0.,0.,0.,2.820557,-0.011475,0.054199,0.242188,101,46,51,295
14.573,11:26:4.573,-9.836914,0.118164,0.132812,-0.014893,0.009521,-0.030762,0.,0.,0.,2.820557,-0.011475,0.054443,0.242188,101,46,51,295
14.673,11:26:4.673,-9.975586,0.108398,0.104492,-0.012695,0.009521,-0.023193,0.,0.,0.,2.820557,-0.011475,0.054199,0.242188,101,46,51,295
14.773,11:26:4.773,-9.975586,0.041992,0.108398,-0.011475,0.007324,-0.027588,0.,0.,0.,2.820801,-0.011475,0.054443,0.242188,101,46,51,294
14.873,11:26:4.873,-9.904297,0.170898,0.099609,-0.009521,0.008301,-0.027588,0.,0.,0.,2.820801,-0.011475,0.054443,0.242188,101,46,51,294
14.973,11:26:4.973,-10.014648,0.146484,0.123047,-0.012695,0.008301,-0.027588,0.,0.,0.,2.820557,-0.011475,0.054443,0.242188,102,46,51,294
15.073,11:26:5.073,-9.889648,0.189453,0.070312,-0.009521,0.010498,-0.031738,0.,0.,0.,2.820557,-0.011475,0.054443,0.246094,102,46,51,294
15.173,11:26:5.173,-9.942383,0.056641,0.12793,-0.013672,0.009521,-0.026367,0.,0.,0.,2.820557,-0.011475,0.054443,0.242188,102,46,51,294
15.273,11:26:5.273,-9.889648,0.094727,0.018555,-0.011475,0.008301,-0.030762,0.,0.,0.,2.820557,-0.011475,0.054443,0.246094,102,46,51,294
15.373,11:26:5.373,-9.942383,0.175781,0.113281,-0.008301,0.008301,-0.027588,0.,0.,0.,2.820557,-0.011475,0.054443,0.246094,102,46,51,294
15.473,11:26:5.473,-9.975586,0.071289,0.137695,-0.010498,0.006348,-0.028564,0.,0.,0.,2.820557,-0.011475,0.054443,0.242188,102,46,51,294
15.573,11:26:5.573,-9.90918,0.132812,0.123047,-0.010498,0.009521,-0.028564,0.,0.,0.,2.820557,-0.011475,0.054443,0.242188,102,46,51,294
15.673,11:26:5.673,-9.917969,0.089844,0.15625,-0.009521,0.010498,-0.029785,0.,0.,0.,2.820557,-0.011475,0.054443,0.242188,101,46,51,294
15.773,11:26:5.773,-9.927734,0.075195,0.108398,-0.011475,0.006348,-0.028564,0.,0.,0.,2.820557,-0.011475,0.054443,0.246094,101,46,51,294
15.873,11:26:5.873,-9.957031,0.080078,0.15625,-0.013672,0.010498,-0.027588,0.,0.,0.,2.820557,-0.011475,0.054688,0.242188,101,46,51,294
15.973,11:26:5.973,-9.995117,0.161133,0.104492,-0.010498,0.008301,-0.026367,0.,0.,0.,2.820557,-0.011475,0.054443,0.242188,101,46,51,294
16.073,11:26:6.073,-9.922852,0.071289,0.189453,-0.010498,0.009521,-0.029785,0.,0.,0.,2.820312,-0.011475,0.054443,0.242188,101,46,51,294
16.173,11:26:6.173,-9.970703,0.179688,0.037109,-0.012695,0.009521,-0.027588,0.,0.,0.,2.820312,-0.011475,0.054443,0.246094,101,46,51,294
16.273,11:26:6.273,-9.961914,0.146484,0.104492,-0.009521,0.007324,-0.025391,0.,0.,0.,2.820312,-0.011475,0.054443,0.246094,101,46,51,294
16.373,11:26:6.373,-9.961914,0.146484,0.104492,-0.009521,0.007324,-0.025391,0.,0.,0.,2.820312,-0.011475,0.054443,0.246094,101,46,51,294
16.473,11:26:6.473,-9.90918,0.199219,0.132812,-0.011475,0.009521,-0.027588,0.,0.,0.,2.820312,-0.011475,0.054443,0.242188,101,46,51,294
16.573,11:26:6.573,-9.990234,0.142578,0.137695,-0.010498,0.005127,-0.029785,0.,0.,0.,2.820312,-0.011475,0.054443,0.242188,101,46,51,294
16.673,11:26:6.673,-9.894531,0.051758,0.113281,-0.013672,0.008301,-0.024414,0.,0.,0.,2.820312,-0.011475,0.054443,0.242188,101,46,51,275
16.773,11:26:6.773,-9.894531,0.051758,0.113281,-0.013672,0.008301,-0.024414,0.,0.,0.,2.820312,-0.011475,0.054443,0.242188,101,46,51,275
16.873,11:26:6.873,-9.894531,0.099609,0.094727,-0.010498,0.009521,-0.028564,0.,0.,0.,2.820557,-0.011719,0.054443,0.242188,101,46,51,294
16.973,11:26:6.973,-9.894531,0.099609,0.094727,-0.010498,0.009521,-0.028564,0.,0.,0.,2.820557,-0.011719,0.054443,0.242188,101,46,51,294
17.073,11:26:7.073,-9.870117,0.104492,0.094727,-0.011475,0.009521,-0.030762,0.,0.,0.,2.820312,-0.011719,0.054688,0.242188,101,46,51,294
17.173,11:26:7.173,-9.870117,0.104492,0.094727,-0.011475,0.009521,-0.030762,0.,0.,0.,2.820312,-0.011719,0.054688,0.242188,101,46,51,294
17.273,11:26:7.273,-9.884766,0.142578,0.070312,-0.012695,0.009521,-0.027588,0.,0.,0.,2.820312,-0.011719,0.054443,0.246094,101,46,51,294
17.373,11:26:7.373,-9.884766,0.142578,0.070312,-0.012695,0.009521,-0.027588,0.,0.,0.,2.820312,-0.011719,0.054443,0.246094,101,46,51,294
17.473,11:26:7.473,-9.904297,0.094727,0.070312,-0.010498,0.007324,-0.024414,0.,0.,0.,2.820312,-0.011719,0.054688,0.246094,101,46,51,294
17.573,11:26:7.573,-9.904297,0.094727,0.070312,-0.010498,0.007324,-0.024414,0.,0.,0.,2.820312,-0.011719,0.054688,0.246094,101,46,51,294
17.673,11:26:7.673,-9.961914,0.12793,0.089844,-0.011475,0.007324,-0.026367,0.,0.,0.,2.820557,-0.011719,0.054688,0.242188,101,46,51,294
17.773,11:26:7.773,-9.894531,0.132812,0.132812,-0.012695,0.009521,-0.027588,0.,0.,0.,2.820312,-0.011719,0.054688,0.242188,101,46,51,294
17.873,11:26:7.873,-9.922852,0.104492,0.132812,-0.013672,0.011475,-0.028564,0.,0.,0.,2.820312,-0.011719,0.054688,0.242188,101,46,51,294
17.973,11:26:7.973,-9.922852,0.104492,0.132812,-0.013672,0.011475,-0.028564,0.,0.,0.,2.820312,-0.011719,0.054688,0.242188,101,46,51,294
18.073,11:26:8.073,-9.765625,0.099609,0.170898,-0.011475,0.009521,-0.029785,0.,0.,0.,2.820312,-0.011719,0.054688,0.242188,101,46,51,294
18.173,11:26:8.173,-9.765625,0.099609,0.170898,-0.011475,0.009521,-0.029785,0.,0.,0.,2.820312,-0.011719,0.054688,0.242188,101,46,51,294
18.273,11:26:8.273,-10.014648,0.12793,0.108398,-0.011475,0.010498,-0.029785,0.,0.,0.,2.820312,-0.011719,0.054688,0.242188,101,46,51,294
18.373,11:26:8.373,-10.014648,0.12793,0.108398,-0.011475,0.010498,-0.029785,0.,0.,0.,2.820312,-0.011719,0.054688,0.242188,101,46,51,294
18.473,11:26:8.473,-9.836914,0.099609,0.041992,-0.014893,0.010498,-0.026367,0.,0.,0.,2.820312,-0.011719,0.054688,0.242188,101,46,51,294
18.573,11:26:8.573,-9.851562,0.066406,0.137695,-0.012695,0.010498,-0.027588,0.,0.,0.,2.820312,-0.011719,0.054688,0.242188,101,46,51,294
18.673,11:26:8.673,-9.932617,0.089844,0.066406,-0.013672,0.007324,-0.027588,0.,0.,0.,2.820312,-0.011719,0.054688,0.242188,101,46,51,294
18.773,11:26:8.773,-9.985352,0.008789,0.104492,-0.010498,0.008301,-0.024414,0.,0.,0.,2.820312,-0.011719,0.054688,0.242188,101,46,51,294
18.873,11:26:8.873,-9.914062,0.15625,0.061523,-0.012695,0.012695,-0.024414,0.,0.,0.,2.820312,-0.011719,0.054688,0.246094,101,46,51,294
18.973,11:26:8.973,-9.957031,0.046875,0.084961,-0.015869,0.008301,-0.029785,0.,0.,0.,2.820312,-0.011719,0.054443,0.242188,101,46,51,294
19.073,11:26:9.073,-9.957031,0.046875,0.084961,-0.015869,0.008301,-0.029785,0.,0.,0.,2.820312,-0.011719,0.054443,0.242188,101,46,51,294
19.173,11:26:9.173,-9.84668,0.084961,0.075195,-0.010498,0.010498,-0.027588,0.,0.,0.,2.820312,-0.011719,0.054443,0.246094,101,46,51,294
19.273,11:26:9.273,-9.84668,0.084961,0.075195,-0.010498,0.010498,-0.027588,0.,0.,0.,2.820312,-0.011719,0.054443,0.246094,101,46,51,294
19.373,11:26:9.373,-9.975586,0.132812,0.132812,-0.012695,0.006348,-0.026367,0.,0.,0.,2.820312,-0.011719,0.054443,0.242188,101,46,51,294
19.473,11:26:9.473,-9.975586,0.132812,0.132812,-0.012695,0.006348,-0.026367,0.,0.,0.,2.820312,-0.011719,0.054443,0.242188,101,46,51,294
19.573,11:26:9.573,-9.961914,0.142578,0.080078,-0.013672,0.008301,-0.028564,0.,0.,0.,2.820557,-0.011719,0.054443,0.242188,101,46,51,294
19.673,11:26:9.673,-9.970703,0.189453,0.132812,-0.012695,0.008301,-0.028564,0.,0.,0.,2.820557,-0.011719,0.054443,0.242188,101,46,51,295
19.773,11:26:9.773,-9.961914,0.056641,0.066406,-0.012695,0.010498,-0.028564,0.,0.,0.,2.820312,-0.011719,0.054443,0.242188,102,46,51,294
19.873,11:26:9.873,-9.947266,0.137695,0.179688,-0.013672,0.012695,-0.027588,0.,0.,0.,2.820312,-0.011719,0.054443,0.246094,102,46,51,294
19.973,11:26:9.973,-9.947266,0.137695,0.179688,-0.013672,0.012695,-0.027588,0.,0.,0.,2.820312,-0.011719,0.054443,0.246094,102,46,51,294
20.073,11:26:10.073,-9.841797,0.056641,0.080078,-0.012695,0.009521,-0.030762,0.,0.,0.,2.820557,-0.011719,0.054199,0.242188,102,46,51,294
20.173,11:26:10.173,-9.894531,0.108398,0.108398,-0.010498,0.008301,-0.025391,0.,0.,0.,2.820557,-0.011719,0.054443,0.242188,102,46,51,294
20.273,11:26:10.273,-9.822266,0.118164,0.089844,-0.010498,0.009521,-0.028564,0.,0.,0.,2.820557,-0.011719,0.054199,0.242188,102,46,51,294
20.373,11:26:10.373,-9.822266,0.118164,0.089844,-0.010498,0.009521,-0.028564,0.,0.,0.,2.820557,-0.011719,0.054199,0.242188,102,46,51,294
20.473,11:26:10.473,-9.9375,0.104492,0.141602,-0.010498,0.007324,-0.027588,0.,0.,0.,2.820312,-0.011719,0.054199,0.242188,102,46,51,294
20.573,11:26:10.573,-9.9375,0.104492,0.141602,-0.010498,0.007324,-0.027588,0.,0.,0.,2.820312,-0.011719,0.054199,0.242188,102,46,51,294
20.673,11:26:10.673,-9.770508,0.056641,0.089844,-0.013672,0.007324,-0.028564,0.,0.,0.,2.820557,-0.011719,0.054199,0.242188,102,46,51,294
20.773,11:26:10.773,-9.832031,0.137695,0.061523,-0.010498,0.009521,-0.027588,0.,0.,0.,2.820557,-0.011719,0.054199,0.242188,102,46,51,294
20.873,11:26:10.873,-9.9375,0.071289,0.113281,-0.014893,0.011475,-0.028564,0.,0.,0.,2.820557,-0.011719,0.054199,0.242188,102,46,51,294
20.973,11:26:10.973,-9.841797,0.084961,0.066406,-0.012695,0.008301,-0.025391,0.,0.,0.,2.820557,-0.011719,0.054199,0.246094,102,46,51,294
21.073,11:26:11.073,-9.841797,0.084961,0.066406,-0.012695,0.008301,-0.025391,0.,0.,0.,2.820557,-0.011719,0.054199,0.246094,102,46,51,294
21.173,11:26:11.173,-9.904297,0.089844,0.099609,-0.011475,0.007324,-0.027588,0.,0.,0.,2.820557,-0.011719,0.054199,0.242188,102,46,51,294
21.273,11:26:11.273,-9.904297,0.089844,0.099609,-0.011475,0.007324,-0.027588,0.,0.,0.,2.820557,-0.011719,0.054199,0.242188,102,46,51,294
21.373,11:26:11.373,-9.947266,0.132812,0.094727,-0.011475,0.008301,-0.027588,0.,0.,0.,2.820557,-0.011719,0.054199,0.242188,102,46,51,294
21.473,11:26:11.473,-9.884766,-0.003906,0.151367,-0.013672,0.010498,-0.025391,0.,0.,0.,2.820557,-0.011719,0.054199,0.242188,102,46,51,294
21.573,11:26:11.573,-9.822266,0.084961,0.108398,-0.013672,0.008301,-0.027588,0.,0.,0.,2.820557,-0.011719,0.054199,0.242188,102,46,51,294
21.673,11:26:11.673,-10.009766,0.12793,0.099609,-0.011475,0.005127,-0.027588,0.,0.,0.,2.820557,-0.011719,0.054199,0.242188,101,46,51,294
21.773,11:26:11.773,-9.970703,0.071289,0.132812,-0.011475,0.010498,-0.025391,0.,0.,0.,2.820557,-0.011719,0.054199,0.242188,101,46,51,294
21.873,11:26:11.873,-9.904297,0.146484,0.084961,-0.010498,0.007324,-0.025391,0.,0.,0.,2.820312,-0.011719,0.054199,0.242188,101,46,51,294
21.973,11:26:11.973,-9.980469,0.137695,0.118164,-0.011475,0.009521,-0.028564,0.,0.,0.,2.820312,-0.011719,0.054199,0.242188,101,46,51,294
22.073,11:26:12.073,-9.9375,0.132812,0.118164,-0.012695,0.010498,-0.026367,0.,0.,0.,2.820312,-0.011719,0.054199,0.242188,101,46,51,294
22.173,11:26:12.173,-9.932617,0.108398,0.070312,-0.012695,0.009521,-0.029785,0.,0.,0.,2.820312,-0.011719,0.054199,0.242188,101,46,51,294
22.273,11:26:12.273,-9.932617,0.108398,0.070312,-0.012695,0.009521,-0.029785,0.,0.,0.,2.820312,-0.011719,0.054199,0.242188,101,46,51,294
22.373,11:26:12.373,-9.904297,0.151367,0.099609,-0.011475,0.010498,-0.028564,0.,0.,0.,2.820312,-0.011475,0.054199,0.246094,101,46,51,294
22.473,11:26:12.473,-9.917969,0.084961,0.108398,-0.010498,0.009521,-0.027588,0.,0.,0.,2.820557,-0.011475,0.054199,0.246094,101,46,51,294
22.573,11:26:12.573,-9.917969,0.084961,0.108398,-0.010498,0.009521,-0.027588,0.,0.,0.,2.820557,-0.011475,0.054199,0.246094,101,46,51,294
22.673,11:26:12.673,-9.875,0.118164,0.051758,-0.013672,0.008301,-0.026367,0.,0.,0.,2.820557,-0.011475,0.054199,0.246094,101,46,51,294
22.773,11:26:12.773,-9.875,0.118164,0.051758,-0.013672,0.008301,-0.026367,0.,0.,0.,2.820557,-0.011475,0.054199,0.246094,101,46,51,294
22.873,11:26:12.873,-9.861328,0.051758,0.003906,-0.012695,0.006348,-0.027588,0.,0.,0.,2.820557,-0.011475,0.054199,0.242188,101,46,51,294
22.973,11:26:12.973,-9.861328,0.051758,0.003906,-0.012695,0.006348,-0.027588,0.,0.,0.,2.820557,-0.011475,0.054199,0.242188,101,46,51,294
23.073,11:26:13.073,-9.9375,0.151367,0.084961,-0.012695,0.005127,-0.026367,0.,0.,0.,2.820557,-0.011475,0.053955,0.242188,101,46,51,294
23.173,11:26:13.173,-9.870117,0.075195,0.132812,-0.009521,0.010498,-0.028564,0.,0.,0.,2.820557,-0.011475,0.053955,0.242188,101,46,51,294
23.273,11:26:13.273,-9.841797,0.108398,0.099609,-0.011475,0.013672,-0.025391,0.,0.,0.,2.820557,-0.011475,0.054199,0.242188,101,46,51,294
23.373,11:26:13.373,-9.884766,0.094727,0.174805,-0.013672,0.010498,-0.029785,0.,0.,0.,2.820557,-0.011475,0.054199,0.242188,101,46,51,294
23.473,11:26:13.473,-9.884766,0.094727,0.174805,-0.013672,0.010498,-0.029785,0.,0.,0.,2.820557,-0.011475,0.054199,0.242188,101,46,51,294
23.573,11:26:13.573,-9.90918,0.094727,0.094727,-0.011475,0.008301,-0.026367,0.,0.,0.,2.820557,-0.011475,0.054199,0.242188,101,46,51,294
23.673,11:26:13.673,-9.904297,0.108398,0.094727,-0.012695,0.007324,-0.029785,0.,0.,0.,2.820557,-0.011475,0.054199,0.242188,101,46,51,294
23.773,11:26:13.773,-9.961914,0.056641,0.123047,-0.013672,0.007324,-0.029785,0.,0.,0.,2.820557,-0.011475,0.053955,0.242188,101,46,51,294
23.873,11:26:13.873,-9.827148,0.108398,0.132812,-0.012695,0.005127,-0.030762,0.,0.,0.,2.820557,-0.011475,0.053955,0.242188,101,46,51,294
23.973,11:26:13.973,-9.961914,0.071289,0.118164,-0.013672,0.009521,-0.030762,0.,0.,0.,2.820557,-0.011475,0.054199,0.242188,101,47,51,294
24.073,11:26:14.073,-10.018555,0.,0.108398,-0.012695,0.007324,-0.027588,0.,0.,0.,2.820557,-0.011475,0.053955,0.242188,101,47,51,294
24.173,11:26:14.173,-9.904297,0.071289,0.075195,-0.010498,0.007324,-0.028564,0.,0.,0.,2.820557,-0.011475,0.053955,0.242188,101,46,51,294
24.273,11:26:14.273,-9.985352,0.123047,0.137695,-0.010498,0.00415,-0.027588,0.,0.,0.,2.820557,-0.011475,0.053955,0.242188,101,46,51,294
24.373,11:26:14.373,-9.942383,0.104492,0.070312,-0.010498,0.011475,-0.030762,0.,0.,0.,2.820557,-0.011475,0.053955,0.242188,101,46,51,294
24.473,11:26:14.473,-9.947266,0.132812,0.15625,-0.013672,0.007324,-0.026367,0.,0.,0.,2.820557,-0.011719,0.053955,0.242188,101,46,51,294
24.573,11:26:14.573,-9.947266,0.132812,0.15625,-0.013672,0.007324,-0.026367,0.,0.,0.,2.820557,-0.011719,0.053955,0.242188,101,46,51,294
24.673,11:26:14.673,-10.100586,1.054688,0.507812,0.075439,0.043457,-0.044678,0.,0.,0.,2.81958,-0.011475,0.053955,0.242188,101,46,51,294
24.773,11:26:14.773,-11.369141,0.023438,0.982422,-0.04248,-0.02124,-0.088135,0.,0.,0.,2.821533,-0.011719,0.054199,0.242188,101,46,51,294
24.873,11:26:14.873,-9.578125,-1.696289,0.199219,-0.028564,-0.025391,0.012695,0.,0.,0.,2.821777,-0.011963,0.054443,0.242188,101,46,51,294
24.973,11:26:14.973,-9.798828,0.142578,0.023438,-0.028564,-0.023193,0.026367,0.,0.,0.,2.822021,-0.011475,0.054199,0.242188,101,46,51,294
25.073,11:26:15.073,-10.986328,-0.717773,0.066406,-0.005127,-0.022217,-0.022217,0.,0.,0.,2.822266,-0.011963,0.054443,0.242188,101,46,51,294
25.173,11:26:15.173,-9.832031,-0.166016,0.645508,-0.025391,-0.103027,0.018066,0.,0.,0.,2.822266,-0.011719,0.053955,0.242188,101,46,51,294
25.273,11:26:15.273,-11.042969,-0.575195,1.448242,-0.023193,0.067871,-0.032959,0.,0.,0.,2.822266,-0.012207,0.054199,0.242188,101,46,51,294
25.373,11:26:15.373,-9.961914,-0.555664,-0.313477,0.00415,0.019043,0.123291,0.,0.,0.,2.822754,-0.011719,0.054443,0.242188,101,46,51,294
25.473,11:26:15.473,-10.320312,1.207031,0.949219,-0.032959,-0.052979,-0.088135,0.,0.,0.,2.822754,-0.011963,0.053955,0.242188,102,46,51,294
25.573,11:26:15.573,-10.320312,1.207031,0.949219,-0.032959,-0.052979,-0.088135,0.,0.,0.,2.822754,-0.011963,0.053955,0.242188,102,46,51,294
25.673,11:26:15.673,-9.650391,0.631836,0.108398,-0.006348,0.070068,-0.031738,0.,0.,0.,2.822998,-0.011719,0.054688,0.242188,103,46,51,294
25.773,11:26:15.773,-9.650391,0.631836,0.108398,-0.006348,0.070068,-0.031738,0.,0.,0.,2.822998,-0.011719,0.054688,0.242188,103,46,51,294
25.873,11:26:15.873,-10.267578,0.507812,0.849609,0.019043,0.025391,0.026367,0.,0.,0.,2.822998,-0.011475,0.054443,0.242188,104,46,51,294
25.973,11:26:15.973,-10.234375,0.779297,0.987305,-0.034912,0.122314,-0.078613,0.,0.,0.,2.822998,-0.011963,0.054688,0.242188,102,46,51,294
26.073,11:26:16.073,-8.535156,0.075195,-0.421875,0.024414,0.070068,0.044678,0.,0.,0.,2.822998,-0.011963,0.054688,0.242188,102,46,51,293
26.173,11:26:16.173,-10.574219,1.672852,-0.141602,-0.013672,0.037109,-0.060547,0.,0.,0.,2.823242,-0.01123,0.054688,0.242188,102,46,51,293
26.273,11:26:16.273,-8.9375,0.108398,-0.204102,-0.016846,0.041504,-0.105225,0.,0.,0.,2.823242,-0.012207,0.054688,0.242188,103,46,51,293
26.373,11:26:16.373,-9.750977,0.313477,0.588867,0.003174,0.0979,-0.008301,0.,0.,0.,2.823486,-0.011475,0.054932,0.242188,103,46,51,294
26.473,11:26:16.473,-9.55957,0.950195,-0.930664,-0.025391,0.067871,-0.104248,0.,0.,0.,2.823486,-0.011475,0.054932,0.242188,103,46,51,294
26.573,11:26:16.573,-9.55957,0.950195,-0.930664,-0.025391,0.067871,-0.104248,0.,0.,0.,2.823486,-0.011475,0.054932,0.242188,103,46,51,294
26.673,11:26:16.673,-10.818359,0.293945,0.408203,-0.014893,0.060547,-0.112793,0.,0.,0.,2.82373,-0.011475,0.054688,0.242188,103,46,51,294
26.773,11:26:16.773,-8.525391,-0.575195,-1.182617,-0.022217,-0.016846,0.018066,0.,0.,0.,2.82373,-0.011719,0.055176,0.242188,103,46,51,293
26.873,11:26:16.873,-9.023438,-0.237305,-0.260742,-0.025391,-0.032959,-0.013672,0.,0.,0.,2.824219,-0.011963,0.054932,0.242188,103,46,51,293
26.973,11:26:16.973,-9.023438,-0.237305,-0.260742,-0.025391,-0.032959,-0.013672,0.,0.,0.,2.824219,-0.011963,0.054932,0.242188,103,46,51,293
27.073,11:26:17.073,-10.59375,0.113281,-0.089844,-0.011475,-0.00415,-0.103027,0.,0.,0.,2.824463,-0.011475,0.054932,0.242188,103,46,51,294
27.173,11:26:17.173,-10.59375,0.113281,-0.089844,-0.011475,-0.00415,-0.103027,0.,0.,0.,2.824463,-0.011475,0.054932,0.242188,103,46,51,294
27.273,11:26:17.273,-9.635742,-0.446289,-0.250977,-0.019043,-0.114746,0.005127,0.,0.,0.,2.824707,-0.011719,0.054932,0.242188,104,47,51,294
27.373,11:26:17.373,-10.287109,0.056641,0.697266,-0.040283,-0.019043,-0.073242,0.,0.,0.,2.824707,-0.011719,0.054932,0.242188,104,46,51,293
27.473,11:26:17.473,-10.521484,-1.81543,0.179688,-0.011475,0.037109,0.045654,0.,0.,0.,2.824707,-0.011963,0.054932,0.242188,104,46,51,293
27.573,11:26:17.573,-10.521484,-1.81543,0.179688,-0.011475,0.037109,0.045654,0.,0.,0.,2.824707,-0.011963,0.054932,0.242188,104,46,51,293
27.673,11:26:17.673,-10.541016,-0.398438,0.583984,-0.016846,-0.051025,-0.122314,0.,0.,0.,2.824707,-0.012207,0.054932,0.242188,103,46,51,293
27.773,11:26:17.773,-10.660156,-1.05957,0.697266,-0.006348,0.029785,0.083984,0.,0.,0.,2.825195,-0.01123,0.054932,0.242188,103,46,51,293
27.873,11:26:17.873,-10.239258,0.094727,0.716797,-0.057373,0.028564,-0.02002,0.,0.,0.,2.824951,-0.010986,0.054932,0.246094,104,46,51,293
27.973,11:26:17.973,-9.975586,-0.56543,0.341797,0.019043,-0.049805,0.067871,0.,0.,0.,2.824951,-0.01123,0.054932,0.242188,104,46,51,293
28.073,11:26:18.073,-11.186523,0.712891,1.529297,-0.027588,0.045654,-0.02124,0.,0.,0.,2.825195,-0.011719,0.054932,0.242188,103,46,51,294
28.173,11:26:18.173,-9.386719,-0.736328,0.246094,0.003174,0.062744,0.094482,0.,0.,0.,2.824951,-0.011963,0.055176,0.242188,103,46,51,294
28.273,11:26:18.273,-10.957031,1.49707,0.630859,-0.006348,0.031738,0.008301,0.,0.,0.,2.825195,-0.011963,0.055176,0.242188,103,46,51,294
28.373,11:26:18.373,-10.219727,0.023438,0.735352,-0.023193,0.046631,-0.07959,0.,0.,0.,2.825195,-0.011963,0.055176,0.242188,103,46,51,294
28.473,11:26:18.473,-10.219727,0.023438,0.735352,-0.023193,0.046631,-0.07959,0.,0.,0.,2.825195,-0.011963,0.055176,0.242188,103,46,51,294
28.573,11:26:18.573,-10.498047,1.054688,-0.018555,-0.013672,0.109375,-0.04248,0.,0.,0.,2.825439,-0.01123,0.05542,0.242188,103,46,51,293
28.673,11:26:18.673,-8.449219,0.583984,-0.436523,0.00415,-0.026367,-0.02124,0.,0.,0.,2.825684,-0.01123,0.05542,0.242188,103,46,51,293
28.773,11:26:18.773,-10.742188,0.835938,1.134766,-0.011475,0.129639,-0.076416,0.,0.,0.,2.825684,-0.011475,0.05542,0.242188,103,46,51,293
28.873,11:26:18.873,-8.975586,-0.146484,-0.792969,-0.006348,0.120117,0.039307,0.,0.,0.,2.825928,-0.011475,0.055908,0.246094,103,46,51,294
28.973,11:26:18.973,-9.200195,1.939453,-0.507812,-0.005127,-0.011475,-0.110596,0.,0.,0.,2.826172,-0.010986,0.055664,0.242188,103,46,51,293
29.073,11:26:19.073,-9.200195,1.939453,-0.507812,-0.005127,-0.011475,-0.110596,0.,0.,0.,2.826172,-0.010986,0.055664,0.242188,103,46,51,293
29.173,11:26:19.173,-9.904297,1.049805,-1.861328,-0.032959,-0.116943,-0.05835,0.,0.,0.,2.827148,-0.011475,0.054199,0.242188,103,46,51,294
29.273,11:26:19.273,-9.904297,1.049805,-1.861328,-0.032959,-0.116943,-0.05835,0.,0.,0.,2.827148,-0.011475,0.054199,0.242188,103,46,51,294
29.373,11:26:19.373,-9.420898,-0.080078,1.129883,0.006348,0.046631,-0.025391,0.,0.,0.,2.827393,-0.010986,0.054199,0.246094,104,46,51,294
29.473,11:26:19.473,-9.712891,-0.712891,-0.355469,-0.007324,-0.023193,0.000977,0.,0.,0.,2.827393,-0.010986,0.054199,0.246094,104,46,51,294
29.573,11:26:19.573,-10.435547,0.703125,-0.355469,-0.040283,-0.018066,-0.037109,0.,0.,0.,2.828125,-0.010498,0.054443,0.246094,104,46,51,294
29.673,11:26:19.673,-9.774414,0.802734,-0.607422,-0.029785,-0.019043,-0.011475,0.,0.,0.,2.828125,-0.010498,0.054443,0.246094,104,46,51,294
29.773,11:26:19.773,-8.702148,-0.613281,-1.310547,0.003174,0.036133,-0.027588,0.,0.,0.,2.828125,-0.010742,0.054932,0.246094,104,46,51,294
29.873,11:26:19.873,-8.702148,-0.613281,-1.310547,0.003174,0.036133,-0.027588,0.,0.,0.,2.828125,-0.010742,0.054932,0.246094,104,46,51,294
29.973,11:26:19.973,-9.506836,0.15625,0.541016,0.000977,0.111572,-0.066895,0.,0.,0.,2.828125,-0.010742,0.054688,0.242188,104,46,51,294
30.073,11:26:20.073,-9.506836,0.15625,0.541016,0.000977,0.111572,-0.066895,0.,0.,0.,2.828125,-0.010742,0.054688,0.242188,104,46,51,294
30.173,11:26:20.173,-11.349609,0.222656,0.15625,-0.023193,-0.033936,-0.033936,0.,0.,0.,2.828369,-0.010986,0.054688,0.242188,104,46,51,294
30.273,11:26:20.273,-11.349609,0.222656,0.15625,-0.023193,-0.033936,-0.033936,0.,0.,0.,2.828369,-0.010986,0.054688,0.242188,104,46,51,294
30.373,11:26:20.373,-9.836914,-0.636719,-1.006836,-0.024414,-0.084961,0.003174,0.,0.,0.,2.829102,-0.010986,0.054932,0.242188,105,46,51,294
30.473,11:26:20.473,-8.578125,-0.142578,-0.255859,-0.014893,0.127686,-0.069092,0.,0.,0.,2.829102,-0.010986,0.055176,0.246094,105,46,51,294
30.573,11:26:20.573,-11.191406,-0.013672,0.493164,0.011475,-0.001953,-0.069092,0.,0.,0.,2.829346,-0.010742,0.054932,0.242188,105,46,51,238
30.673,11:26:20.673,-10.454102,1.007812,-0.526367,-0.046631,-0.036133,-0.090332,0.,0.,0.,2.82959,-0.010498,0.054932,0.246094,105,46,51,220
30.773,11:26:20.773,-10.454102,1.007812,-0.526367,-0.046631,-0.036133,-0.090332,0.,0.,0.,2.82959,-0.010498,0.054932,0.246094,105,46,51,220
30.873,11:26:20.873,-9.28125,0.293945,1.604492,-0.007324,0.094482,-0.008301,0.,0.,0.,2.829834,-0.010742,0.054932,0.246094,104,46,51,275
30.973,11:26:20.973,-9.28125,0.293945,1.604492,-0.007324,0.094482,-0.008301,0.,0.,0.,2.829834,-0.010742,0.054932,0.246094,104,46,51,275
31.073,11:26:21.073,-10.488281,-0.389648,-1.167969,0.022217,-0.095703,0.008301,0.,0.,0.,2.830078,-0.010498,0.054932,0.242188,104,46,51,293
31.173,11:26:21.173,-10.488281,-0.389648,-1.167969,0.022217,-0.095703,0.008301,0.,0.,0.,2.830078,-0.010498,0.054932,0.242188,104,46,51,293
31.273,11:26:21.273,-8.668945,-0.222656,-1.040039,-0.019043,0.,-0.036133,0.,0.,0.,2.829834,-0.010498,0.054932,0.242188,104,46,51,293
31.373,11:26:21.373,-8.668945,-0.222656,-1.040039,-0.019043,0.,-0.036133,0.,0.,0.,2.829834,-0.010498,0.054932,0.242188,104,46,51,293
31.473,11:26:21.473,-9.942383,-0.137695,1.776367,0.006348,0.083984,-0.052002,0.,0.,0.,2.829834,-0.010742,0.054688,0.242188,104,46,51,293
31.573,11:26:21.573,-9.386719,0.865234,0.484375,-0.028564,0.02124,-0.000977,0.,0.,0.,2.829834,-0.010498,0.055176,0.246094,103,46,51,294
31.673,11:26:21.673,-9.564453,-0.698242,0.935547,0.011475,-0.016846,0.033936,0.,0.,0.,2.82959,-0.010498,0.055176,0.246094,103,46,51,294
31.773,11:26:21.773,-9.564453,-0.698242,0.935547,0.011475,-0.016846,0.033936,0.,0.,0.,2.82959,-0.010498,0.055176,0.246094,103,46,51,294
31.873,11:26:21.873,-9.708008,-0.213867,-1.880859,-0.000977,-0.025391,-0.006348,0.,0.,0.,2.82959,-0.010742,0.055908,0.246094,104,46,51,293
31.973,11:26:21.973,-9.133789,-0.089844,1.358398,-0.013672,0.046631,-0.087158,0.,0.,0.,2.829346,-0.011475,0.05542,0.246094,105,46,51,293
32.073,11:26:22.073,-10.899414,-0.071289,0.869141,-0.012695,0.047852,-0.071289,0.,0.,0.,2.82959,-0.010742,0.055664,0.246094,106,46,51,275
32.173,11:26:22.173,-10.258789,1.188477,-1.125,-0.048828,-0.036133,-0.055176,0.,0.,0.,2.82959,-0.010254,0.055908,0.246094,106,47,51,221
32.273,11:26:22.273,-9.320312,-0.018555,1.700195,-0.030762,-0.033936,-0.006348,0.,0.,0.,2.82959,-0.010254,0.05542,0.242188,104,46,51,221
32.373,11:26:22.373,-10.53125,-0.802734,-0.413086,0.024414,-0.039307,0.044678,0.,0.,0.,2.829834,-0.010498,0.055664,0.242188,104,46,51,275
32.473,11:26:22.473,-9.272461,0.12793,-1.600586,-0.026367,0.000977,-0.044678,0.,0.,0.,2.829834,-0.010498,0.056152,0.242188,104,46,51,293
32.573,11:26:22.573,-9.272461,0.12793,-1.600586,-0.026367,0.000977,-0.044678,0.,0.,0.,2.829834,-0.010498,0.056152,0.242188,104,46,51,293
32.673,11:26:22.673,-11.331055,0.270508,-0.089844,0.000977,0.019043,0.005127,0.,0.,0.,2.829834,-0.010254,0.055664,0.246094,104,46,51,293
32.773,11:26:22.773,-9.439453,0.921875,-0.854492,-0.044678,-0.023193,0.032959,0.,0.,0.,2.829834,-0.010254,0.055664,0.246094,105,46,51,293
32.873,11:26:22.873,-9.526367,-0.698242,1.163086,0.016846,-0.063721,0.041504,0.,0.,0.,2.829834,-0.010742,0.05542,0.246094,105,46,51,294
32.973,11:26:22.973,-9.889648,-0.741211,-1.219727,-0.007324,0.037109,0.010498,0.,0.,0.,2.830078,-0.010986,0.056152,0.242188,105,46,51,295
33.073,11:26:23.073,-9.286133,0.679688,-0.655273,-0.02124,0.034912,-0.072266,0.,0.,0.,2.830322,-0.010986,0.055908,0.246094,105,46,51,294
33.173,11:26:23.173,-10.55957,0.598633,2.084961,-0.007324,-0.00415,-0.057373,0.,0.,0.,2.830322,-0.010742,0.055176,0.246094,105,46,51,294
33.273,11:26:23.273,-10.50293,0.507812,-0.977539,-0.013672,0.018066,-0.003174,0.,0.,0.,2.830566,-0.010742,0.056152,0.246094,105,46,51,294
33.373,11:26:23.373,-8.759766,0.232422,-0.15625,-0.012695,-0.005127,-0.033936,0.,0.,0.,2.830566,-0.010498,0.055908,0.246094,104,46,51,296
33.473,11:26:23.473,-9.90918,-0.998047,0.920898,0.026367,-0.040283,-0.049805,0.,0.,0.,2.830811,-0.010498,0.055664,0.246094,104,46,51,258
33.573,11:26:23.573,-9.90918,-0.998047,0.920898,0.026367,-0.040283,-0.049805,0.,0.,0.,2.830811,-0.010498,0.055664,0.246094,104,46,51,258
33.673,11:26:23.673,-9.952148,1.135742,1.158203,-0.029785,0.00415,-0.064697,0.,0.,0.,2.830811,-0.010254,0.05542,0.246094,104,46,51,239
33.773,11:26:23.773,-10.837891,-0.204102,0.792969,-0.008301,-0.049805,-0.02002,0.,0.,0.,2.830811,-0.010254,0.055664,0.242188,103,46,51,295
33.873,11:26:23.873,-9.25293,-0.146484,-1.09668,-0.018066,0.039307,0.022217,0.,0.,0.,2.830811,-0.01001,0.056152,0.246094,103,46,51,294
33.973,11:26:23.973,-9.157227,-0.161133,0.313477,0.,0.006348,-0.032959,0.,0.,0.,2.830566,-0.010254,0.056152,0.246094,103,46,51,294
34.073,11:26:24.073,-10.995117,-0.522461,0.839844,-0.003174,0.047852,-0.039307,0.,0.,0.,2.830566,-0.010254,0.056152,0.246094,103,46,51,294
34.173,11:26:24.173,-9.866211,1.03125,-0.864258,-0.062744,0.05957,-0.030762,0.,0.,0.,2.830566,-0.01001,0.056641,0.246094,103,46,51,295
34.273,11:26:24.273,-9.463867,0.327148,1.15332,-0.026367,-0.036133,0.001953,0.,0.,0.,2.830811,-0.01001,0.056152,0.246094,103,46,51,295
34.373,11:26:24.373,-10.253906,-1.168945,0.469727,0.010498,-0.038086,0.023193,0.,0.,0.,2.830811,-0.010254,0.056641,0.242188,103,46,51,296
34.473,11:26:24.473,-8.980469,0.071289,-1.851562,-0.033936,0.019043,-0.060547,0.,0.,0.,2.830566,-0.010498,0.057129,0.246094,103,46,51,296
34.573,11:26:24.573,-8.980469,0.071289,-1.851562,-0.033936,0.019043,-0.060547,0.,0.,0.,2.830566,-0.010498,0.057129,0.246094,103,46,51,296
34.673,11:26:24.673,-11.110352,0.351562,0.413086,-0.031738,-0.02124,0.010498,0.,0.,0.,2.830811,-0.010254,0.056396,0.246094,104,46,51,296
34.773,11:26:24.773,-9.089844,0.413086,-1.419922,-0.019043,-0.031738,0.003174,0.,0.,0.,2.831055,-0.010254,0.056641,0.246094,103,46,51,297
34.873,11:26:24.873,-9.673828,-0.541016,1.453125,0.003174,0.052979,-0.028564,0.,0.,0.,2.830811,-0.010498,0.056396,0.246094,103,46,51,297
34.973,11:26:24.973,-10.186523,-0.166016,-0.070312,-0.02002,0.02002,-0.076416,0.,0.,0.,2.830811,-0.010498,0.056885,0.246094,103,46,51,298
35.073,11:26:25.073,-10.110352,1.016602,-0.944336,-0.039307,-0.064697,-0.101074,0.,0.,0.,2.830811,-0.01001,0.056885,0.246094,104,46,51,240
35.173,11:26:25.173,-10.358398,0.384766,1.239258,-0.009521,0.083984,0.010498,0.,0.,0.,2.830811,-0.010254,0.056641,0.246094,104,46,51,202
35.273,11:26:25.273,-9.325195,-0.370117,-0.008789,0.,-0.05835,0.012695,0.,0.,0.,2.831055,-0.010254,0.056885,0.246094,104,46,51,259
35.373,11:26:25.373,-9.917969,-0.313477,-1.287109,-0.012695,-0.070068,-0.103027,0.,0.,0.,2.831055,-0.010254,0.056885,0.246094,104,46,51,298
35.473,11:26:25.473,-10.473633,0.237305,1.186523,-0.027588,0.191406,-0.069092,0.,0.,0.,2.831055,-0.01001,0.056885,0.246094,105,46,51,296
35.573,11:26:25.573,-9.980469,0.827148,0.630859,-0.033936,-0.014893,-0.038086,0.,0.,0.,2.831055,-0.009766,0.056641,0.246094,105,46,51,296
35.673,11:26:25.673,-9.564453,0.208984,-0.113281,-0.025391,0.007324,-0.054199,0.,0.,0.,2.831787,-0.01001,0.057129,0.246094,105,46,51,295
35.773,11:26:25.773,-10.866211,0.517578,0.289062,-0.013672,-0.045654,-0.088135,0.,0.,0.,2.832031,-0.009521,0.057129,0.246094,106,46,51,295
35.873,11:26:25.873,-10.411133,0.413086,-0.166016,0.000977,0.120117,0.028564,0.,0.,0.,2.832275,-0.009277,0.057617,0.246094,106,46,51,295
35.973,11:26:25.973,-8.822266,0.108398,0.080078,-0.023193,-0.041504,0.012695,0.,0.,0.,2.832031,-0.009277,0.057373,0.246094,105,46,51,295
36.073,11:26:26.073,-10.158203,-0.8125,0.137695,0.019043,-0.007324,-0.060547,0.,0.,0.,2.832031,-0.01001,0.057373,0.246094,105,46,51,295
36.173,11:26:26.173,-10.209961,0.679688,-0.844727,-0.025391,0.11377,-0.071289,0.,0.,0.,2.832275,-0.009766,0.058105,0.246094,105,46,51,295
36.273,11:26:26.273,-10.209961,0.679688,-0.844727,-0.025391,0.11377,-0.071289,0.,0.,0.,2.832275,-0.009766,0.058105,0.246094,105,46,51,295
36.373,11:26:26.373,-10.014648,1.087891,1.338867,-0.032959,-0.048828,-0.057373,0.,0.,0.,2.83252,-0.009521,0.057373,0.246094,105,46,51,295
36.473,11:26:26.473,-10.014648,1.087891,1.338867,-0.032959,-0.048828,-0.057373,0.,0.,0.,2.83252,-0.009521,0.057373,0.246094,105,46,51,295
36.573,11:26:26.573,-10.224609,-0.769531,0.080078,0.005127,-0.063721,0.034912,0.,0.,0.,2.832275,-0.009521,0.057617,0.246094,105,46,51,295
36.673,11:26:26.673,-9.348633,-0.179688,-1.942383,-0.007324,-0.010498,-0.003174,0.,0.,0.,2.832031,-0.009521,0.058105,0.246094,106,46,51,295
36.773,11:26:26.773,-9.703125,0.303711,1.395508,-0.026367,0.062744,-0.087158,0.,0.,0.,2.831787,-0.009766,0.057617,0.246094,106,46,51,295
36.873,11:26:26.873,-10.890625,0.394531,1.59082,-0.005127,0.074463,0.000977,0.,0.,0.,2.831787,-0.009521,0.057617,0.246094,105,47,51,295
36.973,11:26:26.973,-9.62207,0.446289,-2.161133,-0.041504,-0.108398,0.006348,0.,0.,0.,2.832275,-0.009277,0.05835,0.246094,104,46,52,296
37.073,11:26:27.073,-8.78418,-0.313477,0.379883,-0.012695,0.046631,-0.015869,0.,0.,0.,2.83252,-0.009521,0.058105,0.246094,104,46,51,296
37.173,11:26:27.173,-10.344727,-0.460938,0.916016,0.023193,0.116943,-0.026367,0.,0.,0.,2.832764,-0.009521,0.058594,0.246094,104,46,51,296
37.273,11:26:27.273,-10.392578,1.254883,-1.504883,-0.048828,-0.106201,-0.061523,0.,0.,0.,2.83252,-0.009033,0.05835,0.242188,105,46,51,296
37.373,11:26:27.373,-9.574219,0.15625,0.246094,-0.001953,0.043457,0.001953,0.,0.,0.,2.83252,-0.009033,0.058594,0.246094,105,46,51,296
37.473,11:26:27.473,-9.750977,-0.613281,0.289062,-0.000977,0.109375,0.039307,0.,0.,0.,2.832764,-0.009277,0.058594,0.246094,105,47,51,296
37.573,11:26:27.573,-9.439453,-0.013672,-0.72168,-0.031738,-0.109375,-0.078613,0.,0.,0.,2.832764,-0.009277,0.05835,0.246094,105,46,51,296
37.673,11:26:27.673,-10.267578,0.698242,0.873047,-0.014893,0.083984,-0.071289,0.,0.,0.,2.83252,-0.009277,0.058594,0.246094,106,46,51,296
37.773,11:26:27.773,-10.076172,0.503906,-0.602539,-0.000977,0.04248,0.040283,0.,0.,0.,2.833008,-0.009033,0.058838,0.246094,106,46,51,296
37.873,11:26:27.873,-8.956055,-0.613281,0.075195,-0.009521,-0.140381,-0.026367,0.,0.,0.,2.83252,-0.009277,0.058594,0.246094,106,46,51,296
37.973,11:26:27.973,-10.143555,-0.199219,0.217773,0.008301,0.132812,-0.072266,0.,0.,0.,2.83252,-0.009277,0.059082,0.246094,107,46,51,296
38.073,11:26:28.073,-10.612305,1.311523,0.279297,-0.025391,0.061523,-0.061523,0.,0.,0.,2.832764,-0.008789,0.058838,0.246094,107,46,51,296
38.173,11:26:28.173,-9.612305,0.013672,1.177734,-0.006348,-0.107422,0.001953,0.,0.,0.,2.832764,-0.008789,0.05835,0.246094,107,46,51,296
38.273,11:26:28.273,-10.234375,-0.817383,-1.206055,0.001953,0.010498,0.009521,0.,0.,0.,2.833008,-0.009033,0.059326,0.246094,106,46,51,297
38.373,11:26:28.373,-9.779297,0.545898,-0.902344,-0.034912,0.023193,-0.087158,0.,0.,0.,2.833008,-0.008789,0.059082,0.246094,105,46,51,297
38.473,11:26:28.473,-10.,0.693359,2.350586,-0.012695,0.098877,-0.062744,0.,0.,0.,2.833008,-0.008789,0.059082,0.246094,105,46,51,298
38.573,11:26:28.573,-10.631836,-0.037109,-0.512695,0.018066,-0.062744,0.045654,0.,0.,0.,2.833008,-0.008545,0.059326,0.246094,106,46,51,297
38.673,11:26:28.673,-9.137695,-0.375,-1.443359,-0.030762,-0.090332,-0.067871,0.,0.,0.,2.833008,-0.009033,0.05957,0.246094,105,46,51,297
38.773,11:26:28.773,-10.780273,0.931641,0.522461,-0.012695,-0.016846,0.00415,0.,0.,0.,2.833008,-0.008545,0.05957,0.246094,104,46,51,296
38.873,11:26:28.873,-10.780273,0.931641,0.522461,-0.012695,-0.016846,0.00415,0.,0.,0.,2.833008,-0.008545,0.05957,0.246094,104,46,51,296
38.973,11:26:28.973,-9.205078,0.179688,1.158203,-0.019043,0.008301,0.006348,0.,0.,0.,2.833252,-0.008057,0.059814,0.246094,105,46,51,296
39.073,11:26:29.073,-9.205078,0.179688,1.158203,-0.019043,0.008301,0.006348,0.,0.,0.,2.833252,-0.008057,0.059814,0.246094,105,46,51,296
39.173,11:26:29.173,-10.206055,-0.789062,-1.424805,0.023193,-0.091309,0.000977,0.,0.,0.,2.833252,-0.008545,0.060303,0.246094,105,46,51,296
39.273,11:26:29.273,-10.206055,-0.789062,-1.424805,0.023193,-0.091309,0.000977,0.,0.,0.,2.833252,-0.008545,0.060303,0.246094,105,46,51,296
39.373,11:26:29.373,-9.980469,-0.008789,0.,-0.036133,0.063721,-0.086182,0.,0.,0.,2.833008,-0.008545,0.060547,0.246094,106,46,51,296
39.473,11:26:29.473,-9.980469,-0.008789,0.,-0.036133,0.063721,-0.086182,0.,0.,0.,2.833008,-0.008545,0.060547,0.246094,106,46,51,296
39.573,11:26:29.573,-9.665039,1.05957,-0.275391,-0.016846,0.074463,-0.038086,0.,0.,0.,2.833252,-0.008301,0.060303,0.246094,107,46,51,296
39.673,11:26:29.673,-10.296875,-0.512695,0.944336,0.00415,-0.05835,0.019043,0.,0.,0.,2.833008,-0.008301,0.059814,0.246094,105,46,51,296
39.773,11:26:29.773,-9.487305,-0.855469,-0.783203,-0.015869,-0.022217,-0.008301,0.,0.,0.,2.833008,-0.008301,0.060303,0.246094,105,46,51,296
39.873,11:26:29.873,-9.927734,0.978516,-0.597656,-0.02124,0.,-0.083984,0.,0.,0.,2.833008,-0.008301,0.060547,0.246094,105,46,51,297
39.973,11:26:29.973,-9.444336,-0.456055,-1.191406,-0.008301,-0.102051,0.024414,0.,0.,0.,2.832764,-0.008545,0.060791,0.246094,104,46,51,297
40.073,11:26:30.073,-9.990234,-0.066406,-0.255859,-0.005127,-0.019043,-0.084961,0.,0.,0.,2.832764,-0.009033,0.061035,0.246094,104,46,51,297
40.173,11:26:30.173,-10.583984,0.793945,0.455078,-0.015869,0.158447,-0.016846,0.,0.,0.,2.832764,-0.008301,0.061279,0.246094,104,46,51,297
40.273,11:26:30.273,-9.142578,-0.061523,-0.013672,-0.025391,-0.131836,-0.006348,0.,0.,0.,2.83252,-0.008301,0.060547,0.246094,104,46,51,297
40.373,11:26:30.373,-9.142578,-0.061523,-0.013672,-0.025391,-0.131836,-0.006348,0.,0.,0.,2.83252,-0.008301,0.060547,0.246094,104,46,51,297
40.473,11:26:30.473,-9.142578,-0.061523,-0.013672,-0.025391,-0.131836,-0.006348,0.,0.,0.,2.83252,-0.008301,0.060547,0.246094,104,46,51,297
40.573,11:26:30.573,-11.029297,0.850586,-0.94043,-0.034912,0.030762,-0.091309,0.,0.,0.,2.832764,-0.008057,0.061035,0.246094,103,46,51,297
40.673,11:26:30.673,-9.793945,-0.893555,-0.18457,0.034912,-0.044678,0.030762,0.,0.,0.,2.83252,-0.008057,0.061035,0.246094,103,46,51,296
40.773,11:26:30.773,-10.430664,-0.023438,-0.260742,-0.02124,-0.013672,-0.062744,0.,0.,0.,2.83252,-0.008301,0.061279,0.246094,104,46,51,296
40.873,11:26:30.873,-10.430664,-0.023438,-0.260742,-0.02124,-0.013672,-0.062744,0.,0.,0.,2.83252,-0.008301,0.061279,0.246094,104,46,51,296
40.973,11:26:30.973,-9.650391,1.045898,-0.265625,-0.032959,0.091309,0.001953,0.,0.,0.,2.832275,-0.007812,0.061279,0.246094,105,46,51,296
41.073,11:26:31.073,-9.917969,-0.555664,0.920898,0.006348,0.006348,0.039307,0.,0.,0.,2.832031,-0.008301,0.061279,0.246094,105,46,51,296
41.173,11:26:31.173,-9.473633,-0.708008,0.080078,-0.016846,0.02124,-0.051025,0.,0.,0.,2.832031,-0.008057,0.061523,0.246094,104,46,51,296
41.273,11:26:31.273,-10.712891,1.079102,-0.716797,-0.037109,-0.045654,-0.095703,0.,0.,0.,2.832031,-0.008301,0.061768,0.246094,103,46,51,296
41.373,11:26:31.373,-11.331055,0.755859,-1.144531,-0.018066,0.070068,-0.013672,0.,0.,0.,2.832275,-0.007812,0.062256,0.246094,103,46,51,294
41.473,11:26:31.473,-9.333984,0.527344,-0.626953,-0.025391,0.019043,-0.007324,0.,0.,0.,2.832275,-0.007812,0.0625,0.246094,103,46,51,293
41.573,11:26:31.573,-9.272461,-0.341797,0.28418,0.014893,0.065918,-0.029785,0.,0.,0.,2.832275,-0.008301,0.0625,0.246094,103,46,51,293
41.673,11:26:31.673,-10.612305,-0.003906,1.818359,-0.003174,0.092529,-0.055176,0.,0.,0.,2.832275,-0.008057,0.0625,0.246094,103,46,51,293
41.773,11:26:31.773,-10.119141,1.150391,-1.086914,-0.047852,-0.112793,-0.064697,0.,0.,0.,2.832275,-0.007812,0.0625,0.246094,103,46,51,293
41.873,11:26:31.873,-10.119141,1.150391,-1.086914,-0.047852,-0.112793,-0.064697,0.,0.,0.,2.832275,-0.007812,0.0625,0.246094,103,46,51,293
41.973,11:26:31.973,-10.119141,1.150391,-1.086914,-0.047852,-0.112793,-0.064697,0.,0.,0.,2.832275,-0.007812,0.0625,0.246094,103,46,51,293
42.073,11:26:32.073,-8.075195,-0.432617,-0.731445,0.005127,0.303223,-0.051025,0.,0.,0.,2.832275,-0.007568,0.064697,0.246094,104,46,51,298
42.173,11:26:32.173,-8.075195,-0.432617,-0.731445,0.005127,0.303223,-0.051025,0.,0.,0.,2.832275,-0.007568,0.064697,0.246094,104,46,51,298
42.273,11:26:32.273,-11.306641,1.150391,2.949219,0.026367,-2.947754,1.016113,0.,0.,0.,2.836914,-0.003662,0.125,0.230469,104,46,51,295
42.373,11:26:32.373,-11.306641,1.150391,2.949219,0.026367,-2.947754,1.016113,0.,0.,0.,2.836914,-0.003662,0.125,0.230469,104,46,51,295
42.473,11:26:32.473,-9.635742,0.394531,0.958984,0.319092,0.314941,-0.073242,0.,0.,0.,2.919434,0.043213,0.022217,0.210938,98,104,50,299
42.573,11:26:32.573,-9.635742,0.394531,0.958984,0.319092,0.314941,-0.073242,0.,0.,0.,2.919434,0.043213,0.022217,0.210938,98,104,50,299
42.673,11:26:32.673,-9.635742,0.394531,0.958984,0.319092,0.314941,-0.073242,0.,0.,0.,2.919434,0.043213,0.022217,0.210938,98,104,50,299
42.773,11:26:32.773,-8.300781,0.456055,0.53125,0.42334,0.022217,-0.412842,0.,0.,0.,3.021973,-0.180176,0.022461,0.285156,95,147,139,299
42.873,11:26:32.873,-8.300781,0.456055,0.53125,0.42334,0.022217,-0.412842,0.,0.,0.,3.021973,-0.180176,0.022461,0.285156,95,147,139,299
42.973,11:26:32.973,-8.458008,0.945312,0.844727,-0.308594,0.127686,2.253906,0.,0.,0.,3.061279,-0.19043,0.024658,0.304688,95,149,136,299
43.073,11:26:33.073,-9.162109,1.079102,2.887695,0.054199,-0.055176,0.186035,0.,0.,0.,3.049805,-0.01709,0.031006,0.292969,95,126,133,299
43.173,11:26:33.173,-9.458984,-1.011719,0.673828,0.018066,0.135986,-0.374512,0.,0.,0.,3.057373,0.05542,0.032959,0.234375,95,56,132,299
43.273,11:26:33.273,-9.458984,-1.011719,0.673828,0.018066,0.135986,-0.374512,0.,0.,0.,3.057373,0.05542,0.032959,0.234375,95,56,132,299
43.373,11:26:33.373,-11.306641,-0.759766,1.524414,0.037109,0.092529,0.115967,0.,0.,0.,3.064453,0.044922,0.038086,0.203125,96,57,132,299
43.473,11:26:33.473,-11.306641,-0.759766,1.524414,0.037109,0.092529,0.115967,0.,0.,0.,3.064453,0.044922,0.038086,0.203125,96,57,132,299
43.573,11:26:33.573,-12.225586,2.481445,-0.541016,0.26709,0.179688,-4.557861,0.,0.,0.,3.090576,-0.016602,0.051758,0.203125,101,155,110,260
43.673,11:26:33.673,-10.703125,-0.023438,-0.393555,-0.114746,0.0979,0.416016,0.,0.,0.,3.091797,-0.245117,0.054443,0.203125,104,156,48,199
43.773,11:26:33.773,-10.703125,-0.023438,-0.393555,-0.114746,0.0979,0.416016,0.,0.,0.,3.091797,-0.245117,0.054443,0.203125,104,156,48,199
43.873,11:26:33.873,-10.071289,0.298828,1.253906,-0.091309,-0.062744,0.468018,0.,0.,0.,3.085449,-0.272217,0.05957,0.203125,102,140,98,198
43.973,11:26:33.973,-10.071289,0.298828,1.253906,-0.091309,-0.062744,0.468018,0.,0.,0.,3.085449,-0.272217,0.05957,0.203125,102,140,98,198
44.073,11:26:34.073,-9.84668,0.351562,0.683594,-0.069092,0.076416,1.184326,0.,0.,0.,3.080566,-0.226562,0.061768,0.203125,101,92,114,139
44.173,11:26:34.173,-11.129883,-0.170898,-0.02832,-0.016846,0.022217,0.089355,0.,0.,0.,3.080078,-0.090576,0.053711,0.203125,103,94,112,100
44.273,11:26:34.273,-11.047852,0.955078,-1.229492,-0.138184,1.500488,3.244629,0.,0.,0.,3.082764,0.047607,0.104736,0.203125,105,145,112,153
44.373,11:26:34.373,-10.598633,0.417969,-1.476562,0.009521,0.351074,0.866211,0.,0.,0.,3.088135,0.201416,0.192383,0.203125,109,161,112,189
44.473,11:26:34.473,-9.454102,0.603516,1.448242,0.308594,-2.149658,-3.835205,0.,0.,0.,3.08374,0.126221,0.13623,0.203125,112,155,97,244
44.573,11:26:34.573,-9.076172,-0.46582,0.583984,-0.046631,-0.38501,-1.167236,0.,0.,0.,3.0896,-0.033691,0.015381,0.203125,115,152,51,281
44.673,11:26:34.673,-9.076172,-0.46582,0.583984,-0.046631,-0.38501,-1.167236,0.,0.,0.,3.0896,-0.033691,0.015381,0.203125,115,152,51,281
44.773,11:26:34.773,-9.444336,0.712891,-1.182617,0.104248,0.730957,-0.866211,0.,0.,0.,3.089844,-0.175537,0.00293,0.203125,118,147,73,248
44.873,11:26:34.873,-9.444336,0.712891,-1.182617,0.104248,0.730957,-0.866211,0.,0.,0.,3.089844,-0.175537,0.00293,0.203125,118,147,73,248
44.973,11:26:34.973,-9.046875,-0.151367,-0.94043,-0.038086,0.064697,-0.424561,0.,0.,0.,3.087646,-0.229248,0.032471,0.203125,118,110,129,227
45.073,11:26:35.073,-9.046875,-0.151367,-0.94043,-0.038086,0.064697,-0.424561,0.,0.,0.,3.087646,-0.229248,0.032471,0.203125,118,110,129,227
45.173,11:26:35.173,-10.46875,1.064453,-0.255859,-0.061523,0.023193,1.678223,0.,0.,0.,3.083008,-0.213135,0.053711,0.203125,118,57,129,257
45.273,11:26:35.273,-10.46875,1.064453,-0.255859,-0.061523,0.023193,1.678223,0.,0.,0.,3.083008,-0.213135,0.053711,0.203125,118,57,129,257
45.373,11:26:35.373,-10.40625,-0.626953,-0.635742,-0.114746,0.102051,0.617188,0.,0.,0.,3.08252,0.019287,0.067871,0.203125,119,88,130,278
45.473,11:26:35.473,-9.96582,-0.356445,-0.707031,0.167969,0.071289,-3.535156,0.,0.,0.,3.102783,0.187012,0.056641,0.203125,122,121,111,273
45.573,11:26:35.573,-10.143555,0.764648,-1.253906,-0.029785,-0.055176,-0.726807,0.,0.,0.,3.109375,-0.008301,0.05957,0.203125,122,118,68,272
45.673,11:26:35.673,-10.143555,0.764648,-1.253906,-0.029785,-0.055176,-0.726807,0.,0.,0.,3.109375,-0.008301,0.05957,0.203125,122,118,68,272
45.773,11:26:35.773,-11.,0.351562,-0.15625,0.138184,-0.902344,-0.634033,0.,0.,0.,3.109863,0.106689,0.197998,0.203125,125,105,135,226
45.873,11:26:35.873,-11.,0.351562,-0.15625,0.138184,-0.902344,-0.634033,0.,0.,0.,3.109863,0.106689,0.197998,0.203125,125,105,135,226
45.973,11:26:35.973,-10.478516,-0.285156,0.555664,0.041504,-0.130859,-0.258545,0.,0.,0.,3.119141,0.10376,0.171875,0.203125,125,100,88,265
46.073,11:26:36.073,-10.478516,-0.285156,0.555664,0.041504,-0.130859,-0.258545,0.,0.,0.,3.119141,0.10376,0.171875,0.203125,125,100,88,265
46.173,11:26:36.173,-9.051758,0.360352,1.111328,0.15625,-1.397217,0.127686,0.,0.,0.,3.125244,0.081543,0.119141,0.203125,123,93,90,267
46.273,11:26:36.273,-10.703125,0.075195,0.930664,0.02124,0.132812,-0.016846,0.,0.,0.,3.133301,0.07373,-0.094971,0.203125,116,84,133,273
46.373,11:26:36.373,-10.703125,0.075195,0.930664,0.02124,0.132812,-0.016846,0.,0.,0.,3.133301,0.07373,-0.094971,0.203125,116,84,133,273
46.473,11:26:36.473,-9.152344,0.056641,1.666992,0.016846,0.031738,0.205322,0.,0.,0.,3.141113,0.080078,-0.027588,0.203125,110,79,193,257
46.573,11:26:36.573,-9.152344,0.056641,1.666992,0.016846,0.031738,0.205322,0.,0.,0.,3.141113,0.080078,-0.027588,0.203125,110,79,193,257
46.673,11:26:36.673,-9.152344,0.056641,1.666992,0.016846,0.031738,0.205322,0.,0.,0.,3.141113,0.080078,-0.027588,0.203125,110,79,193,257
46.773,11:26:36.773,-9.137695,-0.427734,-0.383789,0.051025,0.016846,-0.176514,0.,0.,0.,-3.126953,0.084961,-0.00293,0.203125,103,74,180,109
46.873,11:26:36.873,-9.137695,-0.427734,-0.383789,0.051025,0.016846,-0.176514,0.,0.,0.,-3.126953,0.084961,-0.00293,0.203125,103,74,180,109
46.973,11:26:36.973,-9.731445,0.375,-0.797852,0.041504,0.030762,-0.039307,0.,0.,0.,-3.122559,0.073975,0.000977,0.203125,100,75,200,129
47.073,11:26:37.073,-9.731445,0.375,-0.797852,0.041504,0.030762,-0.039307,0.,0.,0.,-3.122559,0.073975,0.000977,0.203125,100,75,200,129
47.173,11:26:37.173,-9.836914,-0.285156,1.519531,-0.04248,2.093262,-0.227539,0.,0.,0.,-3.114502,0.053467,0.121094,0.203125,99,77,197,248
47.273,11:26:37.273,-9.836914,-0.285156,1.519531,-0.04248,2.093262,-0.227539,0.,0.,0.,-3.114502,0.053467,0.121094,0.203125,99,77,197,248
47.373,11:26:37.373,-9.516602,-0.427734,-0.617188,0.02002,0.396729,-0.200928,0.,0.,0.,-3.109131,0.042969,0.202148,0.203125,99,80,196,288
47.473,11:26:37.473,-9.516602,-0.427734,-0.617188,0.02002,0.396729,-0.200928,0.,0.,0.,-3.109131,0.042969,0.202148,0.203125,99,80,196,288
47.573,11:26:37.573,-9.516602,-0.427734,-0.617188,0.02002,0.396729,-0.200928,0.,0.,0.,-3.109131,0.042969,0.202148,0.203125,99,80,196,288
47.673,11:26:37.673,-9.516602,-0.427734,-0.617188,0.02002,0.396729,-0.200928,0.,0.,0.,-3.109131,0.042969,0.202148,0.203125,99,80,196,288
47.773,11:26:37.773,-10.473633,1.083008,0.270508,0.064697,-0.40332,-0.170166,0.,0.,0.,-3.097168,0.01001,-0.02417,0.203125,98,87,185,290
47.873,11:26:37.873,-9.310547,0.041992,1.282227,0.015869,-0.124512,0.055176,0.,0.,0.,-3.087402,-0.013916,-0.030762,0.203125,95,95,182,293
47.973,11:26:37.973,-10.339844,-0.24707,-0.417969,0.026367,0.662842,-0.22876,0.,0.,0.,-3.085205,-0.021973,-0.011475,0.203125,93,99,177,293
48.073,11:26:38.073,-9.574219,-0.389648,1.899414,-0.011475,0.093506,-0.083008,0.,0.,0.,-3.082031,-0.029541,0.000732,0.203125,90,105,174,293
48.173,11:26:38.173,-10.397461,-0.712891,-0.660156,0.006348,-0.069092,-0.162598,0.,0.,0.,-3.07959,-0.040527,0.013428,0.203125,89,109,169,293
48.273,11:26:38.273,-9.630859,0.222656,-0.517578,0.025391,0.145752,-0.144531,0.,0.,0.,-3.077148,-0.050049,0.016113,0.203125,89,114,166,293
48.373,11:26:38.373,-9.630859,0.222656,-0.517578,0.025391,0.145752,-0.144531,0.,0.,0.,-3.077148,-0.050049,0.016113,0.203125,89,114,166,293
48.473,11:26:38.473,-9.630859,0.222656,-0.517578,0.025391,0.145752,-0.144531,0.,0.,0.,-3.077148,-0.050049,0.016113,0.203125,89,114,166,293
48.573,11:26:38.573,-10.760742,0.313477,-0.451172,0.010498,0.,0.608643,0.,0.,0.,-3.070557,-0.045166,0.024902,0.203125,91,64,152,299
48.673,11:26:38.673,-10.234375,-0.503906,0.208984,-0.010498,0.127686,0.198975,0.,0.,0.,-3.066162,0.057373,0.033447,0.203125,93,116,150,275
48.773,11:26:38.773,-9.975586,-0.636719,0.982422,0.019043,0.19458,-0.340332,0.,0.,0.,-3.061523,0.080322,0.038574,0.203125,95,135,147,239
48.873,11:26:38.873,-10.018555,-0.260742,-0.892578,0.049805,0.098877,-0.014893,0.,0.,0.,-3.057373,0.019043,0.048828,0.203125,100,141,127,235
48.973,11:26:38.973,-9.774414,-0.084961,-0.018555,0.051025,0.153076,-0.968262,0.,0.,0.,-3.054932,-0.022705,0.058594,0.203125,102,144,67,230
49.073,11:26:39.073,-9.774414,-0.084961,-0.018555,0.051025,0.153076,-0.968262,0.,0.,0.,-3.054932,-0.022705,0.058594,0.203125,102,144,67,230
49.173,11:26:39.173,-9.894531,0.537109,-2.060547,-0.090332,-0.001953,-0.378662,0.,0.,0.,-3.060059,-0.220947,0.085938,0.203125,114,156,132,171
49.273,11:26:39.273,-9.894531,0.537109,-2.060547,-0.090332,-0.001953,-0.378662,0.,0.,0.,-3.060059,-0.220947,0.085938,0.203125,114,156,132,171
49.373,11:26:39.373,-9.061523,0.517578,0.626953,-0.15625,0.121094,4.369629,0.,0.,0.,-3.059082,-0.025635,0.094971,0.203125,118,140,126,93
49.473,11:26:39.473,-10.430664,0.68457,-0.788086,0.052002,0.016846,1.620605,0.,0.,0.,-3.055664,0.153564,0.098145,0.203125,122,89,123,160
49.573,11:26:39.573,-10.430664,0.68457,-0.788086,0.052002,0.016846,1.620605,0.,0.,0.,-3.055664,0.153564,0.098145,0.203125,122,89,123,160
49.673,11:26:39.673,-10.143555,1.240234,0.080078,0.153076,0.166016,-0.911865,0.,0.,0.,-3.049805,0.186279,0.103516,0.203125,126,90,123,206
49.773,11:26:39.773,-10.219727,-0.921875,-2.416992,0.104248,-0.065918,-0.479736,0.,0.,0.,-3.040771,0.186035,0.106201,0.203125,129,147,122,126
49.873,11:26:39.873,-9.970703,0.056641,-1.078125,0.054199,-0.093506,-0.335205,0.,0.,0.,-3.021484,-0.008057,0.073486,0.203125,137,168,115,201
49.973,11:26:39.973,-9.970703,0.056641,-1.078125,0.054199,-0.093506,-0.335205,0.,0.,0.,-3.021484,-0.008057,0.073486,0.203125,137,168,115,201
50.073,11:26:40.073,-10.047852,-0.118164,1.567383,0.032959,0.030762,-0.171143,0.,0.,0.,-3.017578,-0.007324,0.067139,0.203125,139,174,111,194
50.173,11:26:40.173,-10.617188,-0.789062,-2.383789,0.036133,-0.005127,-0.122314,0.,0.,0.,-3.013916,-0.013184,0.064697,0.203125,142,179,105,190
50.273,11:26:40.273,-9.683594,0.242188,-0.469727,-0.031738,0.025391,-0.024414,0.,0.,0.,-3.011719,-0.026611,0.061768,0.203125,144,184,99,119
50.373,11:26:40.373,-10.411133,0.68457,0.451172,0.043457,-0.008301,-0.410645,0.,0.,0.,-3.010254,-0.050781,0.061523,0.203125,136,188,94,72
50.473,11:26:40.473,-10.579102,-0.071289,0.507812,-0.036133,0.052002,-0.180908,0.,0.,0.,-3.010254,-0.067871,0.062744,0.203125,132,194,91,138
50.573,11:26:40.573,-10.579102,-0.071289,0.507812,-0.036133,0.052002,-0.180908,0.,0.,0.,-3.010254,-0.067871,0.062744,0.203125,132,194,91,138
50.673,11:26:40.673,-9.386719,0.341797,0.341797,-0.034912,-0.110596,-0.02002,0.,0.,0.,-3.011475,-0.06665,0.07666,0.203125,128,207,78,71
50.773,11:26:40.773,-10.206055,-0.227539,0.645508,-0.018066,-0.041504,0.093506,0.,0.,0.,-3.01001,-0.055908,0.058105,0.203125,128,209,75,71
50.873,11:26:40.873,-10.310547,0.341797,-0.935547,0.013672,0.29248,0.005127,0.,0.,0.,-3.007568,-0.067871,0.237305,0.203125,129,209,71,71
50.973,11:26:40.973,-10.310547,0.341797,-0.935547,0.013672,0.29248,0.005127,0.,0.,0.,-3.007568,-0.067871,0.237305,0.203125,129,209,71,71
51.073,11:26:41.073,-10.310547,0.341797,-0.935547,0.013672,0.29248,0.005127,0.,0.,0.,-3.007568,-0.067871,0.237305,0.203125,129,209,71,71
51.173,11:26:41.173,-9.683594,0.422852,-0.455078,-0.05835,0.060547,-0.162598,0.,0.,0.,-3.003174,-0.054199,0.180664,0.203125,129,173,72,119
51.273,11:26:41.273,-9.683594,0.422852,-0.455078,-0.05835,0.060547,-0.162598,0.,0.,0.,-3.003174,-0.054199,0.180664,0.203125,129,173,72,119
51.373,11:26:41.373,-10.162109,0.18457,-1.400391,-0.121094,-2.341064,0.316895,0.,0.,0.,-3.003174,-0.039551,0.072754,0.203125,132,185,74,128
51.473,11:26:41.473,-9.506836,0.008789,0.75,-0.054199,-0.489502,0.147705,0.,0.,0.,-3.003906,-0.033936,-0.020264,0.203125,132,203,77,121
51.573,11:26:41.573,-9.635742,-0.341797,1.120117,-0.034912,-0.051025,0.052002,0.,0.,0.,-3.003174,0.003906,-0.058105,0.203125,127,200,86,128
51.673,11:26:41.673,-10.033203,-0.432617,-0.322266,0.02002,0.320312,0.213867,0.,0.,0.,-2.99707,0.043457,0.019531,0.203125,122,162,100,125
51.773,11:26:41.773,-9.688477,1.064453,1.262695,0.049805,0.139404,0.043457,0.,0.,0.,-2.993408,0.058838,0.036377,0.203125,122,189,103,96
51.873,11:26:41.873,-9.879883,0.056641,-1.324219,-0.001953,0.557617,-0.046631,0.,0.,0.,-2.989746,0.063232,0.059082,0.203125,122,187,106,86
51.973,11:26:41.973,-8.941406,-0.24707,0.844727,0.00415,0.095703,-0.014893,0.,0.,0.,-2.984863,0.05957,0.099365,0.203125,122,186,109,86
52.073,11:26:42.073,-8.941406,-0.24707,0.844727,0.00415,0.095703,-0.014893,0.,0.,0.,-2.984863,0.05957,0.099365,0.203125,122,186,109,86
52.173,11:26:42.173,-9.454102,-0.071289,2.108398,0.011475,0.595947,-0.195801,0.,0.,0.,-2.979492,0.053711,0.135986,0.203125,125,188,111,108
52.273,11:26:42.273,-9.454102,-0.071289,2.108398,0.011475,0.595947,-0.195801,0.,0.,0.,-2.979492,0.053711,0.135986,0.203125,125,188,111,108
52.373,11:26:42.373,-9.454102,-0.071289,2.108398,0.011475,0.595947,-0.195801,0.,0.,0.,-2.979492,0.053711,0.135986,0.203125,125,188,111,108
52.473,11:26:42.473,-9.46875,-0.931641,0.237305,0.027588,0.222412,-0.125488,0.,0.,0.,-2.976074,0.050293,0.163086,0.203125,126,190,110,176
52.573,11:26:42.573,-9.46875,-0.931641,0.237305,0.027588,0.222412,-0.125488,0.,0.,0.,-2.976074,0.050293,0.163086,0.203125,126,190,110,176
52.673,11:26:42.673,-9.46875,-0.931641,0.237305,0.027588,0.222412,-0.125488,0.,0.,0.,-2.976074,0.050293,0.163086,0.203125,126,190,110,176
52.773,11:26:42.773,-9.46875,-0.931641,0.237305,0.027588,0.222412,-0.125488,0.,0.,0.,-2.976074,0.050293,0.163086,0.203125,126,190,110,176
52.873,11:26:42.873,-10.416016,0.636719,1.519531,0.018066,0.101074,-0.073242,0.,0.,0.,-2.963135,0.008301,0.000732,0.203125,128,195,106,86
52.973,11:26:42.973,-9.693359,-0.222656,-1.353516,0.014893,0.694824,-0.116943,0.,0.,0.,-2.960693,0.00293,0.032959,0.203125,128,194,105,107
53.073,11:26:43.073,-9.813477,0.389648,2.858398,0.034912,0.390381,-0.112793,0.,0.,0.,-2.956787,-0.010498,0.123291,0.203125,126,194,103,140
53.173,11:26:43.173,-9.813477,0.389648,2.858398,0.034912,0.390381,-0.112793,0.,0.,0.,-2.956787,-0.010498,0.123291,0.203125,126,194,103,140
53.273,11:26:43.273,-9.813477,0.389648,2.858398,0.034912,0.390381,-0.112793,0.,0.,0.,-2.956787,-0.010498,0.123291,0.203125,126,194,103,140
53.373,11:26:43.373,-9.19043,0.874023,-1.80957,0.016846,0.025391,-0.052979,0.,0.,0.,-2.951416,-0.023926,0.001953,0.21875,122,198,97,135
53.473,11:26:43.473,-10.899414,0.441406,1.101562,-0.039307,-0.02124,-0.006348,0.,0.,0.,-2.95166,-0.024902,0.027832,0.203125,121,198,95,134
53.573,11:26:43.573,-10.899414,0.441406,1.101562,-0.039307,-0.02124,-0.006348,0.,0.,0.,-2.95166,-0.024902,0.027832,0.203125,121,198,95,134
53.673,11:26:43.673,-9.942383,0.313477,-0.835938,-0.005127,0.143555,-0.060547,0.,0.,0.,-2.953125,-0.028809,0.048584,0.207031,120,199,90,134
53.773,11:26:43.773,-10.253906,-0.479492,0.255859,-0.009521,0.018066,-0.026367,0.,0.,0.,-2.953125,-0.033691,0.05835,0.214844,121,201,88,116
53.873,11:26:43.873,-9.420898,0.204102,0.070312,-0.024414,0.048828,-0.037109,0.,0.,0.,-2.952393,-0.035156,0.059814,0.222656,121,201,85,89
53.973,11:26:43.973,-10.961914,-0.285156,-1.206055,0.00415,0.601074,-0.103027,0.,0.,0.,-2.951416,-0.034912,0.067139,0.226562,123,201,84,88
54.073,11:26:44.073,-9.789062,0.108398,0.645508,0.006348,0.170166,-0.015869,0.,0.,0.,-2.949951,-0.034668,0.142334,0.222656,123,200,82,87
54.173,11:26:44.173,-10.416016,-0.603516,-0.536133,-0.04248,0.180908,-0.00415,0.,0.,0.,-2.94751,-0.035645,0.161377,0.207031,125,200,82,102
54.273,11:26:44.273,-9.625977,0.603516,-0.916016,-0.012695,0.066895,-0.060547,0.,0.,0.,-2.945312,-0.031494,0.158203,0.199219,126,200,82,126
54.373,11:26:44.373,-10.626953,1.135742,0.987305,-0.070068,-1.802734,-0.00415,0.,0.,0.,-2.943848,-0.029297,0.108887,0.199219,129,202,82,126
54.473,11:26:44.473,-10.526367,-0.512695,0.564453,-0.027588,-0.240479,-0.109375,0.,0.,0.,-2.944092,-0.02124,-0.003418,0.199219,130,203,83,127
54.573,11:26:44.573,-10.526367,-0.512695,0.564453,-0.027588,-0.240479,-0.109375,0.,0.,0.,-2.944092,-0.02124,-0.003418,0.199219,130,203,83,127
54.673,11:26:44.673,-10.033203,0.293945,-0.72168,-0.023193,-0.077637,0.130859,0.,0.,0.,-2.941895,-0.008301,0.,0.199219,130,204,84,82
54.773,11:26:44.773,-10.066406,-0.232422,-1.833008,0.047852,2.063477,-0.034912,0.,0.,0.,-2.939209,-0.005127,0.11084,0.199219,129,199,84,82
54.873,11:26:44.873,-10.498047,-0.365234,-0.90625,-0.015869,0.446777,-0.051025,0.,0.,0.,-2.936279,0.001709,0.185059,0.210938,127,197,87,83
54.973,11:26:44.973,-10.498047,-0.365234,-0.90625,-0.015869,0.446777,-0.051025,0.,0.,0.,-2.936279,0.001709,0.185059,0.210938,127,197,87,83
55.073,11:26:45.073,-10.588867,0.674805,-0.897461,0.016846,-0.283936,0.018066,0.,0.,0.,-2.93457,0.021484,-0.041992,0.261719,128,190,98,134
55.173,11:26:45.173,-10.588867,0.674805,-0.897461,0.016846,-0.283936,0.018066,0.,0.,0.,-2.93457,0.021484,-0.041992,0.261719,128,190,98,134
55.273,11:26:45.273,-9.779297,0.451172,-1.048828,0.006348,0.348877,0.064697,0.,0.,0.,-2.932861,0.024902,-0.069092,0.230469,126,187,98,137
55.373,11:26:45.373,-9.779297,0.451172,-1.048828,0.006348,0.348877,0.064697,0.,0.,0.,-2.932861,0.024902,-0.069092,0.230469,126,187,98,137
55.473,11:26:45.473,-11.253906,-0.84082,-1.229492,-0.026367,-0.081787,-0.045654,0.,0.,0.,-2.930664,0.031494,-0.018311,0.222656,123,185,98,140
55.573,11:26:45.573,-11.253906,-0.84082,-1.229492,-0.026367,-0.081787,-0.045654,0.,0.,0.,-2.930664,0.031494,-0.018311,0.222656,123,185,98,140
55.673,11:26:45.673,-9.540039,-0.641602,-0.375,-0.013672,0.119141,-0.107422,0.,0.,0.,-2.925049,0.013916,0.042725,0.199219,119,189,100,177
55.773,11:26:45.773,-9.540039,-0.641602,-0.375,-0.013672,0.119141,-0.107422,0.,0.,0.,-2.925049,0.013916,0.042725,0.199219,119,189,100,177
55.873,11:26:45.873,-10.206055,0.603516,-0.189453,-0.009521,-0.075439,-0.011475,0.,0.,0.,-2.923828,0.010986,0.049561,0.210938,123,187,102,187
55.973,11:26:45.973,-8.951172,0.408203,-1.091797,0.008301,0.123291,-0.031738,0.,0.,0.,-2.922119,0.010986,0.055176,0.234375,125,186,103,169
56.073,11:26:46.073,-9.085938,-0.289062,0.084961,0.016846,-0.015869,-0.010498,0.,0.,0.,-2.920898,0.010742,0.056641,0.261719,119,189,105,165
56.173,11:26:46.173,-9.195312,0.489258,0.801758,0.027588,0.094482,-0.013672,0.,0.,0.,-2.918945,0.012451,0.058105,0.296875,118,195,102,189
56.273,11:26:46.273,-10.258789,0.179688,-1.595703,0.009521,-0.026367,-0.048828,0.,0.,0.,-2.917236,0.017578,0.05835,0.3125,119,192,99,186
56.373,11:26:46.373,-9.708008,-0.146484,-1.182617,0.044678,-0.011475,-0.224365,0.,0.,0.,-2.914795,0.01416,0.055908,0.261719,120,188,98,150
56.473,11:26:46.473,-11.15332,0.579102,-0.958984,0.013672,0.018066,-0.028564,0.,0.,0.,-2.9104,-0.004883,0.056641,0.203125,122,192,97,137
56.573,11:26:46.573,-11.15332,0.579102,-0.958984,0.013672,0.018066,-0.028564,0.,0.,0.,-2.9104,-0.004883,0.056641,0.203125,122,192,97,137
56.673,11:26:46.673,-10.186523,0.270508,-0.046875,-0.029785,-0.005127,-0.051025,0.,0.,0.,-2.905273,-0.01416,0.062744,0.203125,124,200,94,131
56.773,11:26:46.773,-9.214844,0.945312,-0.498047,0.028564,0.00415,0.013672,0.,0.,0.,-2.903076,-0.018066,0.063232,0.203125,125,202,92,129
56.873,11:26:46.873,-10.110352,0.893555,-1.585938,0.010498,0.039307,-0.09668,0.,0.,0.,-2.901611,-0.026367,0.061035,0.21875,126,203,89,128
56.973,11:26:46.973,-9.473633,-0.208984,-1.196289,0.006348,0.038086,-0.135986,0.,0.,0.,-2.900146,-0.027588,0.062012,0.25,126,205,86,125
57.073,11:26:47.073,-8.348633,-0.023438,-1.338867,-0.003174,0.033936,-0.05957,0.,0.,0.,-2.897949,-0.028809,0.061279,0.28125,126,203,84,123
57.173,11:26:47.173,-9.473633,-1.026367,-1.600586,0.008301,-0.001953,-0.010498,0.,0.,0.,-2.891602,-0.039795,0.060303,0.300781,125,209,82,120
57.273,11:26:47.273,-9.473633,-1.026367,-1.600586,0.008301,-0.001953,-0.010498,0.,0.,0.,-2.891602,-0.039795,0.060303,0.300781,125,209,82,120
57.373,11:26:47.373,-9.612305,0.807617,0.702148,0.009521,0.029785,-0.000977,0.,0.,0.,-2.888916,-0.040039,0.061035,0.292969,125,215,79,120
57.473,11:26:47.473,-10.023438,-0.641602,0.166016,0.009521,0.008301,-0.028564,0.,0.,0.,-2.88623,-0.030762,0.061768,0.269531,128,213,78,120
57.573,11:26:47.573,-10.023438,-0.641602,0.166016,0.009521,0.008301,-0.028564,0.,0.,0.,-2.88623,-0.030762,0.061768,0.269531,128,213,78,120
57.673,11:26:47.673,-10.50293,0.041992,-1.585938,-0.04248,-0.009521,-0.076416,0.,0.,0.,-2.878662,-0.029541,0.06543,0.210938,140,214,73,115
57.773,11:26:47.773,-11.235352,0.161133,0.902344,0.041504,0.265869,-0.077637,0.,0.,0.,-2.875977,-0.036377,0.07251,0.203125,141,216,72,112
57.873,11:26:47.873,-10.214844,1.164062,-1.889648,0.009521,-0.023193,-0.054199,0.,0.,0.,-2.873535,-0.040039,0.079102,0.210938,140,217,72,110
57.973,11:26:47.973,-9.851562,-0.166016,-1.585938,0.008301,0.022217,0.088135,0.,0.,0.,-2.871582,-0.032471,0.088135,0.242188,143,218,75,109
58.073,11:26:48.073,-9.540039,-0.789062,0.104492,-0.024414,-0.034912,0.048828,0.,0.,0.,-2.866211,0.003174,0.08667,0.304688,161,214,73,110
58.173,11:26:48.173,-9.540039,-0.789062,0.104492,-0.024414,-0.034912,0.048828,0.,0.,0.,-2.866211,0.003174,0.08667,0.304688,161,214,73,110
58.273,11:26:48.273,-8.458008,-0.280273,0.137695,0.00415,-0.036133,-0.174316,0.,0.,0.,-2.863281,0.007324,0.083008,0.300781,160,211,74,110
58.373,11:26:48.373,-8.458008,-0.280273,0.137695,0.00415,-0.036133,-0.174316,0.,0.,0.,-2.863281,0.007324,0.083008,0.300781,160,211,74,110
58.473,11:26:48.473,-10.234375,0.427734,-1.239258,0.022217,0.006348,0.016846,0.,0.,0.,-2.861084,-0.012207,0.071045,0.289062,159,208,76,113
58.573,11:26:48.573,-10.234375,0.427734,-1.239258,0.022217,0.006348,0.016846,0.,0.,0.,-2.861084,-0.012207,0.071045,0.289062,159,208,76,113
58.673,11:26:48.673,-11.407227,0.208984,-1.415039,0.016846,-0.032959,0.00415,0.,0.,0.,-2.857422,-0.00415,0.060791,0.238281,163,204,81,115
58.773,11:26:48.773,-10.37793,-0.398438,-0.479492,-0.026367,-0.205322,0.083008,0.,0.,0.,-2.856445,0.005615,0.050049,0.21875,163,203,84,110
58.873,11:26:48.873,-10.37793,-0.398438,-0.479492,-0.026367,-0.205322,0.083008,0.,0.,0.,-2.856445,0.005615,0.050049,0.21875,163,203,84,110
58.973,11:26:48.973,-9.995117,-0.323242,0.831055,-0.013672,0.032959,0.038086,0.,0.,0.,-2.852539,0.026367,0.070312,0.238281,166,200,91,134
59.073,11:26:49.073,-9.995117,-0.323242,0.831055,-0.013672,0.032959,0.038086,0.,0.,0.,-2.852539,0.026367,0.070312,0.238281,166,200,91,134
59.173,11:26:49.173,-9.592773,0.489258,0.421875,0.023193,-0.491455,0.026367,0.,0.,0.,-2.850342,0.03125,0.049316,0.300781,167,199,92,163
59.273,11:26:49.273,-8.477539,0.108398,-0.303711,0.052002,-0.112793,-0.086182,0.,0.,0.,-2.847656,0.033447,0.027588,0.34375,169,196,93,162
59.373,11:26:49.373,-8.769531,-0.003906,-0.916016,0.047852,0.056396,-0.120117,0.,0.,0.,-2.844238,0.029297,0.019287,0.351562,170,195,93,162
59.473,11:26:49.473,-9.085938,-0.318359,-0.341797,0.031738,0.001953,-0.040283,0.,0.,0.,-2.84082,0.019775,0.034912,0.347656,171,192,93,161
59.573,11:26:49.573,-9.085938,-0.318359,-0.341797,0.031738,0.001953,-0.040283,0.,0.,0.,-2.84082,0.019775,0.034912,0.347656,171,192,93,161
59.673,11:26:49.673,-10.732422,0.370117,2.526367,0.038086,0.167969,-0.0979,0.,0.,0.,-2.83374,0.007812,0.047119,0.238281,174,191,93,150
59.773,11:26:49.773,-12.211914,1.230469,-0.963867,-0.000977,0.05957,-0.093506,0.,0.,0.,-2.82959,0.005371,0.056641,0.199219,177,197,93,143
59.873,11:26:49.873,-10.669922,0.270508,1.438477,-0.026367,0.070068,-0.048828,0.,0.,0.,-2.826416,-0.005127,0.059326,0.234375,174,200,90,143
59.973,11:26:49.973,-8.827148,0.008789,1.134766,-0.04248,-0.031738,-0.157471,0.,0.,0.,-2.829346,-0.009277,0.061523,0.292969,176,197,89,149
60.073,11:26:50.073,-8.467773,0.827148,0.350586,-0.00415,0.069092,-0.055176,0.,0.,0.,-2.831055,-0.012939,0.060059,0.335938,178,199,87,131
60.173,11:26:50.173,-8.286133,0.217773,0.023438,-0.013672,0.006348,-0.193604,0.,0.,0.,-2.832764,-0.015381,0.058594,0.359375,180,199,86,120
60.273,11:26:50.273,-8.286133,0.217773,0.023438,-0.013672,0.006348,-0.193604,0.,0.,0.,-2.832764,-0.015381,0.058594,0.359375,180,199,86,120
60.373,11:26:50.373,-9.779297,0.313477,-0.413086,-0.016846,0.030762,-0.081787,0.,0.,0.,-2.83374,-0.032959,0.058105,0.367188,182,199,83,129
60.473,11:26:50.473,-9.779297,0.313477,-0.413086,-0.016846,0.030762,-0.081787,0.,0.,0.,-2.83374,-0.032959,0.058105,0.367188,182,199,83,129
60.573,11:26:50.573,-10.214844,0.688477,1.533203,0.011475,0.056396,0.02002,0.,0.,0.,-2.833984,-0.037354,0.060547,0.359375,188,202,79,136
60.673,11:26:50.673,-11.230469,0.964844,0.166016,0.00415,0.009521,-0.07959,0.,0.,0.,-2.834229,-0.041016,0.059814,0.292969,206,205,74,121
60.773,11:26:50.773,-10.899414,0.051758,-1.985352,-0.074463,-0.065918,0.057373,0.,0.,0.,-2.835449,-0.041992,0.057861,0.265625,207,205,71,115
60.873,11:26:50.873,-10.488281,0.560547,-2.289062,-0.062744,0.154297,-0.019043,0.,0.,0.,-2.841064,-0.035156,0.066895,0.25,208,205,71,116
60.973,11:26:50.973,-10.488281,0.560547,-2.289062,-0.062744,0.154297,-0.019043,0.,0.,0.,-2.841064,-0.035156,0.066895,0.25,208,205,71,116
61.073,11:26:51.073,-10.488281,0.560547,-2.289062,-0.062744,0.154297,-0.019043,0.,0.,0.,-2.841064,-0.035156,0.066895,0.25,208,205,71,116
61.173,11:26:51.173,-9.401367,0.146484,0.973633,-0.048828,-0.041504,0.040283,0.,0.,0.,-2.852539,-0.02124,0.079346,0.3125,220,211,70,107
61.273,11:26:51.273,-9.401367,0.146484,0.973633,-0.048828,-0.041504,0.040283,0.,0.,0.,-2.852539,-0.02124,0.079346,0.3125,220,211,70,107
61.373,11:26:51.373,-9.736328,0.265625,-1.058594,-0.025391,-0.039307,-0.02124,0.,0.,0.,-2.860352,-0.010986,0.113037,0.335938,236,202,73,101
61.473,11:26:51.473,-10.138672,1.37793,1.305664,-0.02124,-0.066895,-0.155273,0.,0.,0.,-2.863281,-0.009033,0.103027,0.328125,239,204,73,99
61.573,11:26:51.573,-10.138672,1.37793,1.305664,-0.02124,-0.066895,-0.155273,0.,0.,0.,-2.863281,-0.009033,0.103027,0.328125,239,204,73,99
61.673,11:26:51.673,-9.836914,-0.40332,-1.419922,-0.038086,-0.15625,0.092529,0.,0.,0.,-2.865479,-0.002686,0.098877,0.316406,239,206,73,98
61.773,11:26:51.773,-9.836914,-0.40332,-1.419922,-0.038086,-0.15625,0.092529,0.,0.,0.,-2.865479,-0.002686,0.098877,0.316406,239,206,73,98
61.873,11:26:51.873,-10.526367,0.071289,0.911133,-0.054199,0.114746,0.11377,0.,0.,0.,-2.866943,0.000244,0.095459,0.304688,240,208,74,97
61.973,11:26:51.973,-10.526367,0.071289,0.911133,-0.054199,0.114746,0.11377,0.,0.,0.,-2.866943,0.000244,0.095459,0.304688,240,208,74,97
62.073,11:26:52.073,-10.986328,0.855469,1.847656,-0.013672,0.089355,-0.072266,0.,0.,0.,-2.868164,0.002686,0.09375,0.296875,240,199,76,98
62.173,11:26:52.173,-10.506836,1.359375,0.421875,0.005127,-0.083008,-0.11792,0.,0.,0.,-2.868896,0.000488,0.092773,0.296875,242,194,77,103
62.273,11:26:52.273,-9.698242,-0.280273,-1.277344,-0.022217,-0.324463,0.028564,0.,0.,0.,-2.868408,0.004883,0.078613,0.296875,248,194,78,114
62.373,11:26:52.373,-9.698242,-0.280273,-1.277344,-0.022217,-0.324463,0.028564,0.,0.,0.,-2.868408,0.004883,0.078613,0.296875,248,194,78,114
62.473,11:26:52.473,-10.085938,1.026367,0.821289,-0.014893,0.018066,0.093506,0.,0.,0.,-2.868164,0.003418,0.067139,0.300781,251,195,82,141
62.573,11:26:52.573,-10.085938,1.026367,0.821289,-0.014893,0.018066,0.093506,0.,0.,0.,-2.868164,0.003418,0.067139,0.300781,251,195,82,141
62.673,11:26:52.673,-10.057617,-0.379883,0.441406,-0.000977,-0.05957,-0.081787,0.,0.,0.,-2.868164,0.017334,0.012695,0.316406,258,198,86,146
62.773,11:26:52.773,-9.9375,-0.242188,-0.222656,-0.022217,0.213867,0.178711,0.,0.,0.,-2.866699,0.02124,0.007568,0.335938,259,193,87,145
62.873,11:26:52.873,-10.042969,0.446289,1.272461,0.019043,0.161621,0.015869,0.,0.,0.,-2.864502,0.021484,0.040771,0.34375,259,191,90,145
62.973,11:26:52.973,-9.793945,0.037109,-0.62207,0.033936,0.166016,-0.170166,0.,0.,0.,-2.863525,0.022461,0.047119,0.351562,260,189,92,142
63.073,11:26:53.073,-10.249023,0.327148,0.298828,0.011475,0.036133,-0.104248,0.,0.,0.,-2.861816,0.019775,0.046875,0.347656,262,188,92,138
63.173,11:26:53.173,-10.166992,0.313477,2.811523,0.005127,0.121094,-0.031738,0.,0.,0.,-2.860107,0.016846,0.05127,0.34375,265,180,93,136
63.273,11:26:53.273,-10.325195,0.517578,-1.101562,0.006348,0.063721,0.02002,0.,0.,0.,-2.85791,0.013672,0.054932,0.328125,248,175,94,135
63.373,11:26:53.373,-9.957031,-0.650391,-0.920898,-0.007324,-0.04248,-0.029785,0.,0.,0.,-2.855225,0.008545,0.057617,0.316406,224,176,95,133
63.473,11:26:53.473,-10.445312,0.537109,-0.707031,0.018066,0.040283,-0.057373,0.,0.,0.,-2.853516,0.002197,0.061768,0.316406,244,177,92,132
63.573,11:26:53.573,-10.085938,-0.537109,-1.837891,-0.031738,0.087158,-0.130859,0.,0.,0.,-2.852783,0.003662,0.065674,0.316406,274,178,92,132
63.673,11:26:53.673,-10.296875,-0.532227,-0.393555,-0.060547,0.084961,-0.018066,0.,0.,0.,-2.852783,-0.000977,0.075439,0.324219,276,178,97,132
63.773,11:26:53.773,-10.100586,-0.660156,1.305664,-0.032959,0.19458,0.049805,0.,0.,0.,-2.854492,-0.001953,0.079834,0.339844,280,178,96,130
63.873,11:26:53.873,-9.617188,-0.213867,0.383789,-0.02124,0.041504,-0.008301,0.,0.,0.,-2.854492,0.003418,0.084229,0.351562,280,179,90,128
63.973,11:26:53.973,-9.578125,-0.936523,0.303711,-0.048828,0.047852,-0.187256,0.,0.,0.,-2.855713,-0.002197,0.089844,0.332031,280,182,87,125
64.073,11:26:54.073,-10.583984,-0.242188,0.355469,-0.029785,0.046631,-0.140381,0.,0.,0.,-2.855713,-0.012939,0.096436,0.308594,285,178,87,122
64.173,11:26:54.173,-11.057617,-0.835938,0.099609,-0.052002,0.083008,-0.188232,0.,0.,0.,-2.856934,-0.022461,0.102539,0.320312,294,165,86,118
64.273,11:26:54.273,-10.014648,-0.265625,-0.469727,-0.048828,-0.038086,0.000977,0.,0.,0.,-2.859131,-0.032959,0.109863,0.34375,294,159,86,114
64.373,11:26:54.373,-9.736328,0.170898,0.056641,-0.045654,0.376709,0.043457,0.,0.,0.,-2.861328,-0.028076,0.124756,0.359375,295,153,86,110
64.473,11:26:54.473,-9.698242,0.759766,1.652344,-0.05957,0.02124,0.,0.,0.,0.,-2.863281,-0.022461,0.135498,0.367188,295,157,86,108
64.573,11:26:54.573,-10.277344,0.893555,1.847656,-0.047852,0.182861,0.105225,0.,0.,0.,-2.863525,-0.021729,0.144043,0.367188,296,175,87,107
64.673,11:26:54.673,-9.84668,-0.850586,-1.637695,-0.026367,0.093506,-0.031738,0.,0.,0.,-2.864746,-0.014893,0.164795,0.359375,260,174,89,107
64.773,11:26:54.773,-9.535156,0.179688,2.649414,-0.013672,0.04248,0.0979,0.,0.,0.,-2.862305,-0.009766,0.169189,0.378906,237,153,90,104
64.873,11:26:54.873,-9.008789,0.59375,0.702148,-0.008301,-0.014893,-0.015869,0.,0.,0.,-2.861084,-0.002197,0.164307,0.394531,271,151,92,102
64.973,11:26:54.973,-9.755859,-0.660156,-0.87793,-0.045654,0.056396,0.05835,0.,0.,0.,-2.860107,0.00415,0.160645,0.382812,295,168,94,102
65.073,11:26:55.073,-10.626953,-0.289062,-0.237305,-0.013672,-0.054199,0.016846,0.,0.,0.,-2.85791,0.009033,0.16333,0.375,295,167,99,103
65.173,11:26:55.173,-9.96582,-0.265625,1.063477,-0.025391,-0.983154,0.139404,0.,0.,0.,-2.854492,0.019287,0.130859,0.371094,295,146,105,104
65.273,11:26:55.273,-10.44043,-0.608398,0.,0.009521,-0.005127,-0.041504,0.,0.,0.,-2.852783,0.025879,0.081299,0.363281,292,150,113,106
65.373,11:26:55.373,-10.44043,-0.608398,0.,0.009521,-0.005127,-0.041504,0.,0.,0.,-2.852783,0.025879,0.081299,0.363281,292,150,113,106
65.473,11:26:55.473,-9.818359,0.693359,1.756836,0.087158,-0.148926,-0.259521,0.,0.,0.,-2.8479,0.055176,0.024902,0.347656,279,158,124,120
65.573,11:26:55.573,-10.545898,-0.408203,0.673828,0.024414,-0.103027,-0.094482,0.,0.,0.,-2.841553,0.044434,0.008057,0.347656,258,155,136,130
65.673,11:26:55.673,-10.076172,-0.265625,-0.859375,0.037109,-0.04248,0.038086,0.,0.,0.,-2.840088,0.035889,0.006592,0.347656,261,153,136,134
65.773,11:26:55.773,-10.219727,1.102539,2.227539,0.023193,0.301025,-0.258545,0.,0.,0.,-2.839111,0.026367,0.010498,0.351562,259,150,136,138
65.873,11:26:55.873,-9.760742,0.280273,0.123047,-0.009521,-0.014893,-0.073242,0.,0.,0.,-2.837402,-0.003174,0.040283,0.367188,241,153,132,150
65.973,11:26:55.973,-9.78418,-0.555664,-0.265625,-0.028564,0.041504,-0.041504,0.,0.,0.,-2.838135,-0.005127,0.043945,0.371094,240,155,130,152
66.073,11:26:56.073,-9.78418,-0.555664,-0.265625,-0.028564,0.041504,-0.041504,0.,0.,0.,-2.838135,-0.005127,0.043945,0.371094,240,155,130,152
66.173,11:26:56.173,-9.587891,0.18457,-0.597656,-0.022217,0.,-0.022217,0.,0.,0.,-2.838867,-0.006348,0.046143,0.375,240,156,129,154
66.273,11:26:56.273,-9.587891,0.18457,-0.597656,-0.022217,0.,-0.022217,0.,0.,0.,-2.838867,-0.006348,0.046143,0.375,240,156,129,154
66.373,11:26:56.373,-9.665039,0.066406,-1.5,-0.013672,0.003174,-0.062744,0.,0.,0.,-2.8396,-0.005615,0.047607,0.378906,240,159,126,159
66.473,11:26:56.473,-9.665039,0.066406,-1.5,-0.013672,0.003174,-0.062744,0.,0.,0.,-2.8396,-0.005615,0.047607,0.378906,240,159,126,159
66.573,11:26:56.573,-9.411133,0.204102,0.099609,-0.019043,0.019043,-0.015869,0.,0.,0.,-2.841797,-0.003906,0.049561,0.382812,240,159,123,161
66.673,11:26:56.673,-9.396484,-0.323242,1.847656,-0.006348,0.05835,-0.077637,0.,0.,0.,-2.842285,-0.0271,0.054199,0.382812,238,164,118,162
66.773,11:26:56.773,-10.042969,0.912109,1.287109,-0.029785,0.027588,0.159424,0.,0.,0.,-2.844238,-0.04834,0.053223,0.382812,237,171,110,162
66.873,11:26:56.873,-10.042969,0.912109,1.287109,-0.029785,0.027588,0.159424,0.,0.,0.,-2.844238,-0.04834,0.053223,0.382812,237,171,110,162
66.973,11:26:56.973,-10.665039,-0.18457,-0.393555,-0.024414,0.106201,-0.037109,0.,0.,0.,-2.845703,-0.034424,0.053955,0.378906,237,165,109,163
67.073,11:26:57.073,-10.665039,-0.18457,-0.393555,-0.024414,0.106201,-0.037109,0.,0.,0.,-2.845703,-0.034424,0.053955,0.378906,237,165,109,163
67.173,11:26:57.173,-10.665039,-0.18457,-0.393555,-0.024414,0.106201,-0.037109,0.,0.,0.,-2.845703,-0.034424,0.053955,0.378906,237,165,109,163
67.273,11:26:57.273,-9.081055,0.541016,-0.34668,-0.05835,0.086182,-0.262695,0.,0.,0.,-2.85791,-0.070068,0.057129,0.40625,207,188,104,161
67.373,11:26:57.373,-9.081055,0.541016,-0.34668,-0.05835,0.086182,-0.262695,0.,0.,0.,-2.85791,-0.070068,0.057129,0.40625,207,188,104,161
67.473,11:26:57.473,-9.879883,-0.260742,-1.073242,-0.05835,0.030762,-0.116943,0.,0.,0.,-2.861328,-0.075684,0.055664,0.410156,233,184,103,157
67.573,11:26:57.573,-9.879883,-0.260742,-1.073242,-0.05835,0.030762,-0.116943,0.,0.,0.,-2.861328,-0.075684,0.055664,0.410156,233,184,103,157
67.673,11:26:57.673,-10.166992,-0.422852,-0.77832,-0.075439,-0.062744,0.307373,0.,0.,0.,-2.865234,-0.072754,0.056396,0.410156,244,182,101,154
67.773,11:26:57.773,-10.166992,-0.422852,-0.77832,-0.075439,-0.062744,0.307373,0.,0.,0.,-2.865234,-0.072754,0.056396,0.410156,244,182,101,154
67.873,11:26:57.873,-10.166992,-0.422852,-0.77832,-0.075439,-0.062744,0.307373,0.,0.,0.,-2.865234,-0.072754,0.056396,0.410156,244,182,101,154
67.973,11:26:57.973,-10.009766,0.56543,2.022461,-0.034912,0.112793,0.067871,0.,0.,0.,-2.869873,-0.015625,0.061523,0.40625,249,181,99,153
68.073,11:26:58.073,-9.300781,0.041992,-0.070312,-0.052002,0.09668,0.02124,0.,0.,0.,-2.871582,-0.013428,0.078125,0.410156,251,178,99,151
68.173,11:26:58.173,-10.158203,0.712891,1.970703,-0.013672,0.371338,0.072266,0.,0.,0.,-2.873535,-0.009277,0.087402,0.394531,253,176,99,149
68.273,11:26:58.273,-10.483398,1.054688,0.189453,-0.006348,0.060547,-0.045654,0.,0.,0.,-2.873535,-0.005127,0.109131,0.382812,256,175,100,145
68.373,11:26:58.373,-9.726562,-0.474609,-0.132812,-0.034912,0.200928,0.075439,0.,0.,0.,-2.872803,0.003662,0.123291,0.386719,258,175,98,140
68.473,11:26:58.473,-9.530273,0.298828,-0.365234,-0.00415,0.027588,0.072266,0.,0.,0.,-2.872314,0.008301,0.135254,0.386719,261,174,98,138
68.573,11:26:58.573,-10.191406,0.56543,2.302734,-0.018066,0.107422,-0.206299,0.,0.,0.,-2.872559,0.001709,0.136963,0.390625,240,173,101,136
68.673,11:26:58.673,-10.148438,0.893555,-2.274414,-0.013672,0.023193,-0.148926,0.,0.,0.,-2.872803,-0.003418,0.131836,0.398438,209,173,102,134
68.773,11:26:58.773,-9.630859,-0.280273,-0.446289,-0.043457,-0.081787,0.239258,0.,0.,0.,-2.872314,0.010498,0.132324,0.410156,233,171,105,132
68.873,11:26:58.873,-9.530273,-1.130859,0.408203,-0.046631,0.037109,0.15625,0.,0.,0.,-2.871094,0.016113,0.133301,0.417969,271,165,107,130
68.973,11:26:58.973,-9.34375,0.308594,-0.166016,-0.030762,0.013672,-0.015869,0.,0.,0.,-2.87085,0.02002,0.12915,0.425781,270,162,110,128
69.073,11:26:59.073,-9.617188,1.117188,1.448242,-0.009521,-0.02124,-0.090332,0.,0.,0.,-2.870605,0.027832,0.128906,0.429688,269,159,112,128
69.173,11:26:59.173,-9.200195,0.222656,-0.360352,-0.018066,0.062744,0.055176,0.,0.,0.,-2.871094,0.033447,0.125977,0.429688,268,158,116,129
69.273,11:26:59.273,-9.200195,0.222656,-0.360352,-0.018066,0.062744,0.055176,0.,0.,0.,-2.871094,0.033447,0.125977,0.429688,268,158,116,129
69.373,11:26:59.373,-9.635742,0.061523,0.77832,-0.023193,-0.056396,-0.022217,0.,0.,0.,-2.869873,0.037354,0.124268,0.425781,257,156,119,131
69.473,11:26:59.473,-10.493164,-0.398438,1.310547,0.009521,0.019043,0.039307,0.,0.,0.,-2.86792,0.039551,0.124756,0.429688,251,150,120,136
69.573,11:26:59.573,-10.458984,-0.850586,-0.393555,0.007324,0.067871,-0.121094,0.,0.,0.,-2.862549,0.039795,0.12085,0.421875,242,147,124,144
69.673,11:26:59.673,-9.612305,0.688477,-1.37207,0.024414,-0.057373,-0.172363,0.,0.,0.,-2.859863,0.029297,0.117676,0.421875,236,146,127,147
69.773,11:26:59.773,-9.942383,-0.232422,-1.15332,-0.006348,-0.052002,-0.081787,0.,0.,0.,-2.856934,0.019531,0.116455,0.425781,232,143,129,152
69.873,11:26:59.873,-10.196289,-0.275391,0.108398,0.02002,-0.346924,-0.105225,0.,0.,0.,-2.854004,0.012207,0.109131,0.429688,205,142,132,156
69.973,11:26:59.973,-8.884766,0.446289,0.023438,0.033936,-0.031738,0.024414,0.,0.,0.,-2.849854,0.000977,0.040527,0.449219,222,140,136,176
70.073,11:27:0.073,-10.196289,1.616211,-0.279297,0.047852,0.022217,-0.051025,0.,0.,0.,-2.845703,-0.001709,0.045898,0.445312,198,140,140,194
70.173,11:27:0.173,-10.196289,1.616211,-0.279297,0.047852,0.022217,-0.051025,0.,0.,0.,-2.845703,-0.001709,0.045898,0.445312,198,140,140,194
70.273,11:27:0.273,-10.262695,-0.537109,-0.365234,0.011475,0.041504,-0.071289,0.,0.,0.,-2.838867,-0.002441,0.051025,0.445312,185,139,141,186
70.373,11:27:0.373,-10.262695,-0.537109,-0.365234,0.011475,0.041504,-0.071289,0.,0.,0.,-2.838867,-0.002441,0.051025,0.445312,185,139,141,186
70.473,11:27:0.473,-10.511719,0.427734,0.15625,-0.003174,0.056396,-0.073242,0.,0.,0.,-2.838867,-0.000732,0.050293,0.445312,178,139,141,188
70.573,11:27:0.573,-10.511719,0.427734,0.15625,-0.003174,0.056396,-0.073242,0.,0.,0.,-2.838867,-0.000732,0.050293,0.445312,178,139,141,188
70.673,11:27:0.673,-10.234375,-0.323242,0.421875,-0.022217,0.057373,-0.04248,0.,0.,0.,-2.837402,-0.000244,0.048828,0.449219,171,139,140,191
70.773,11:27:0.773,-10.234375,-0.323242,0.421875,-0.022217,0.057373,-0.04248,0.,0.,0.,-2.837402,-0.000244,0.048828,0.449219,171,139,140,191
70.873,11:27:0.873,-10.234375,-0.323242,0.421875,-0.022217,0.057373,-0.04248,0.,0.,0.,-2.837402,-0.000244,0.048828,0.449219,171,139,140,191
70.973,11:27:0.973,-9.985352,0.308594,0.764648,-0.024414,0.015869,0.000977,0.,0.,0.,-2.837158,0.000732,0.046631,0.457031,161,142,137,197
71.073,11:27:1.073,-9.985352,0.308594,0.764648,-0.024414,0.015869,0.000977,0.,0.,0.,-2.837158,0.000732,0.046631,0.457031,161,142,137,197
71.173,11:27:1.173,-10.291992,0.318359,1.139648,-0.010498,0.00415,-0.012695,0.,0.,0.,-2.838379,-0.000488,0.045166,0.460938,156,142,136,199
71.273,11:27:1.273,-10.291992,0.318359,1.139648,-0.010498,0.00415,-0.012695,0.,0.,0.,-2.838379,-0.000488,0.045166,0.460938,156,142,136,199
71.373,11:27:1.373,-10.506836,-0.769531,-2.194336,-0.006348,0.041504,-0.093506,0.,0.,0.,-2.838379,0.000244,0.044434,0.460938,153,142,136,202
71.473,11:27:1.473,-9.875,0.555664,1.053711,-0.014893,0.089355,-0.315918,0.,0.,0.,-2.839111,-0.007324,0.04248,0.46875,147,144,137,204
71.573,11:27:1.573,-9.765625,-0.15625,1.751953,0.006348,0.077637,0.302002,0.,0.,0.,-2.83667,-0.013916,0.043457,0.480469,139,145,138,210
71.673,11:27:1.673,-9.46875,-0.041992,0.270508,-0.023193,-0.019043,0.011475,0.,0.,0.,-2.837402,-0.034668,0.047852,0.472656,126,149,130,216
71.773,11:27:1.773,-10.009766,-0.579102,0.15625,-0.02124,0.045654,-0.083008,0.,0.,0.,-2.838379,-0.035645,0.048096,0.46875,123,150,131,217
71.873,11:27:1.873,-10.009766,-0.579102,0.15625,-0.02124,0.045654,-0.083008,0.,0.,0.,-2.838379,-0.035645,0.048096,0.46875,123,150,131,217
71.973,11:27:1.973,-10.176758,1.168945,2.350586,-0.019043,0.064697,-0.039307,0.,0.,0.,-2.839111,-0.0354,0.047119,0.464844,121,152,125,218
72.073,11:27:2.073,-10.176758,1.168945,2.350586,-0.019043,0.064697,-0.039307,0.,0.,0.,-2.839111,-0.0354,0.047119,0.464844,121,152,125,218
72.173,11:27:2.173,-10.0625,0.332031,0.673828,-0.018066,-0.032959,-0.149902,0.,0.,0.,-2.838379,-0.039795,0.050537,0.464844,119,153,122,218
72.273,11:27:2.273,-10.0625,0.332031,0.673828,-0.018066,-0.032959,-0.149902,0.,0.,0.,-2.838379,-0.039795,0.050537,0.464844,119,153,122,218
72.373,11:27:2.373,-9.574219,-0.441406,-1.614258,-0.00415,0.015869,-0.083984,0.,0.,0.,-2.839111,-0.044189,0.053711,0.460938,118,154,124,218
72.473,11:27:2.473,-9.574219,-0.441406,-1.614258,-0.00415,0.015869,-0.083984,0.,0.,0.,-2.839111,-0.044189,0.053711,0.460938,118,154,124,218
72.573,11:27:2.573,-9.411133,0.232422,-0.317383,-0.038086,-0.033936,0.511719,0.,0.,0.,-2.837891,-0.022461,0.049316,0.453125,117,154,126,218
72.673,11:27:2.673,-9.411133,0.232422,-0.317383,-0.038086,-0.033936,0.511719,0.,0.,0.,-2.837891,-0.022461,0.049316,0.453125,117,154,126,218
72.773,11:27:2.773,-9.832031,0.850586,-1.785156,0.02124,0.101074,-0.345703,0.,0.,0.,-2.834961,-0.012451,0.044678,0.4375,116,155,119,195
72.873,11:27:2.873,-9.544922,-0.199219,-0.797852,-0.007324,-0.052002,-0.231934,0.,0.,0.,-2.833496,-0.020752,0.041504,0.4375,115,155,119,158
72.973,11:27:2.973,-10.095703,0.351562,-0.958984,-0.024414,-0.054199,0.220215,0.,0.,0.,-2.83374,-0.020752,0.042969,0.445312,115,156,119,180
73.073,11:27:3.073,-10.095703,0.351562,-0.958984,-0.024414,-0.054199,0.220215,0.,0.,0.,-2.83374,-0.020752,0.042969,0.445312,115,156,119,180
73.173,11:27:3.173,-9.37793,-0.456055,-1.073242,-0.005127,0.105225,0.010498,0.,0.,0.,-2.83374,-0.000244,0.044189,0.445312,115,157,120,215
73.273,11:27:3.273,-9.602539,-0.071289,-1.115234,0.010498,0.115967,0.007324,0.,0.,0.,-2.833008,0.010742,0.044189,0.445312,117,157,121,213
73.373,11:27:3.373,-10.239258,-0.712891,0.421875,-0.028564,-0.101074,0.116943,0.,0.,0.,-2.833008,0.011963,0.049805,0.445312,118,157,119,211
73.473,11:27:3.473,-10.239258,-0.712891,0.421875,-0.028564,-0.101074,0.116943,0.,0.,0.,-2.833008,0.011963,0.049805,0.445312,118,157,119,211
73.573,11:27:3.573,-9.746094,0.323242,0.640625,0.041504,0.008301,-0.048828,0.,0.,0.,-2.824463,0.006348,0.084473,0.460938,123,160,116,201
73.673,11:27:3.673,-9.746094,0.323242,0.640625,0.041504,0.008301,-0.048828,0.,0.,0.,-2.824463,0.006348,0.084473,0.460938,123,160,116,201
73.773,11:27:3.773,-9.492188,-0.698242,-1.267578,0.003174,0.02124,-0.04248,0.,0.,0.,-2.820801,0.004883,0.078125,0.46875,125,163,115,185
73.873,11:27:3.873,-9.492188,-0.698242,-1.267578,0.003174,0.02124,-0.04248,0.,0.,0.,-2.820801,0.004883,0.078125,0.46875,125,163,115,185
73.973,11:27:3.973,-9.224609,-0.703125,0.222656,-0.008301,0.060547,-0.36377,0.,0.,0.,-2.817139,0.,0.071289,0.476562,128,164,112,175
74.073,11:27:4.073,-10.138672,0.636719,1.262695,-0.036133,0.012695,-0.05957,0.,0.,0.,-2.816895,-0.035889,0.082275,0.484375,129,165,111,195
74.173,11:27:4.173,-10.209961,1.259766,0.40332,0.011475,0.05957,-0.218994,0.,0.,0.,-2.819092,-0.051758,0.083496,0.496094,131,168,110,189
74.273,11:27:4.273,-10.209961,1.259766,0.40332,0.011475,0.05957,-0.218994,0.,0.,0.,-2.819092,-0.051758,0.083496,0.496094,131,168,110,189
74.373,11:27:4.373,-9.841797,0.84082,1.557617,0.003174,0.04248,-0.122314,0.,0.,0.,-2.821045,-0.064697,0.085205,0.496094,132,171,109,186
74.473,11:27:4.473,-10.363281,-0.68457,-0.137695,-0.084961,-0.145752,0.474609,0.,0.,0.,-2.822021,-0.051758,0.079834,0.496094,133,174,108,188
74.573,11:27:4.573,-10.363281,-0.68457,-0.137695,-0.084961,-0.145752,0.474609,0.,0.,0.,-2.822021,-0.051758,0.079834,0.496094,133,174,108,188
74.673,11:27:4.673,-9.822266,-0.094727,-2.227539,0.009521,-0.025391,0.083008,0.,0.,0.,-2.823242,-0.016846,0.067139,0.492188,134,175,107,190
74.773,11:27:4.773,-10.158203,-0.669922,-1.376953,-0.018066,-0.132812,0.075439,0.,0.,0.,-2.822754,0.000732,0.059326,0.484375,136,172,107,187
74.873,11:27:4.873,-9.55957,-1.112305,1.078125,-0.019043,-0.057373,0.013672,0.,0.,0.,-2.817627,0.011719,0.054688,0.492188,143,173,109,172
74.973,11:27:4.973,-9.55957,-1.112305,1.078125,-0.019043,-0.057373,0.013672,0.,0.,0.,-2.817627,0.011719,0.054688,0.492188,143,173,109,172
75.073,11:27:5.073,-9.55957,-1.112305,1.078125,-0.019043,-0.057373,0.013672,0.,0.,0.,-2.817627,0.011719,0.054688,0.492188,143,173,109,172
75.173,11:27:5.173,-9.612305,-0.222656,-0.668945,0.018066,0.103027,-0.051025,0.,0.,0.,-2.805908,0.012451,0.093506,0.511719,150,170,111,164
75.273,11:27:5.273,-9.612305,-0.222656,-0.668945,0.018066,0.103027,-0.051025,0.,0.,0.,-2.805908,0.012451,0.093506,0.511719,150,170,111,164
75.373,11:27:5.373,-9.583008,-0.674805,-1.262695,0.049805,-0.093506,0.083984,0.,0.,0.,-2.800537,0.012695,0.098877,0.511719,151,169,110,170
75.473,11:27:5.473,-9.583008,-0.674805,-1.262695,0.049805,-0.093506,0.083984,0.,0.,0.,-2.800537,0.012695,0.098877,0.511719,151,169,110,170
75.573,11:27:5.573,-10.46875,0.489258,-1.106445,0.070068,0.05835,-0.049805,0.,0.,0.,-2.781738,0.009277,0.110596,0.515625,159,170,114,135
75.673,11:27:5.673,-9.544922,0.417969,1.338867,0.062744,-0.481934,0.193604,0.,0.,0.,-2.774414,0.011963,0.096924,0.519531,159,173,112,156
75.773,11:27:5.773,-9.947266,0.251953,-1.101562,0.05835,-0.104248,-0.02124,0.,0.,0.,-2.768311,0.013184,0.071045,0.519531,161,174,111,172
75.873,11:27:5.873,-9.947266,0.265625,-0.255859,0.04248,-0.02002,-0.244629,0.,0.,0.,-2.761719,0.007324,0.058594,0.519531,162,176,111,175
75.973,11:27:5.973,-10.488281,0.270508,0.232422,0.066895,-0.062744,-0.071289,0.,0.,0.,-2.755371,0.001709,0.05957,0.519531,162,176,111,174
76.073,11:27:6.073,-10.262695,-1.520508,-0.28418,0.025391,-0.026367,0.048828,0.,0.,0.,-2.748535,-0.001465,0.060059,0.523438,163,176,110,168
76.173,11:27:6.173,-10.262695,-1.520508,-0.28418,0.025391,-0.026367,0.048828,0.,0.,0.,-2.748535,-0.001465,0.060059,0.523438,163,176,110,168
76.273,11:27:6.273,-10.262695,-1.520508,-0.28418,0.025391,-0.026367,0.048828,0.,0.,0.,-2.748535,-0.001465,0.060059,0.523438,163,176,110,168
76.373,11:27:6.373,-9.109375,-1.026367,-0.313477,0.019043,-0.010498,-0.023193,0.,0.,0.,-2.730469,-0.001953,0.064209,0.523438,164,179,109,148
76.473,11:27:6.473,-9.645508,-0.855469,-0.479492,0.038086,0.039307,-0.016846,0.,0.,0.,-2.724121,-0.003906,0.063721,0.523438,165,180,108,130
76.573,11:27:6.573,-9.516602,0.142578,-1.362305,0.055176,0.039307,-0.014893,0.,0.,0.,-2.717773,-0.005615,0.063477,0.527344,167,180,108,128
76.673,11:27:6.673,-9.516602,0.142578,-1.362305,0.055176,0.039307,-0.014893,0.,0.,0.,-2.717773,-0.005615,0.063477,0.527344,167,180,108,128
76.773,11:27:6.773,-10.450195,0.066406,-1.025391,0.05957,0.012695,-0.048828,0.,0.,0.,-2.712402,-0.003418,0.064697,0.527344,168,180,106,140
76.873,11:27:6.873,-10.450195,0.066406,-1.025391,0.05957,0.012695,-0.048828,0.,0.,0.,-2.712402,-0.003418,0.064697,0.527344,168,180,106,140
76.973,11:27:6.973,-10.310547,0.888672,0.783203,0.057373,0.003174,-0.033936,0.,0.,0.,-2.705811,-0.003418,0.064209,0.53125,168,180,106,139
77.073,11:27:7.073,-4.379883,0.869141,2.103516,0.11377,-0.103027,0.090332,0.,0.,0.,-2.698242,-0.002441,0.067383,0.535156,169,181,104,123
77.173,11:27:7.173,-2.87207,0.137695,-0.455078,0.188232,-0.039307,0.218018,0.,0.,0.,-2.68335,0.010986,0.067139,0.527344,170,182,104,117
77.273,11:27:7.273,-1.024414,-0.456055,0.678711,0.241455,-0.023193,0.294678,0.,0.,0.,-2.662354,0.039795,0.056885,0.453125,171,184,104,116
77.373,11:27:7.373,-64.357422,-28.696289,20.841797,-0.637451,2.96582,0.476562,0.,0.,0.,-2.635742,0.08374,0.046875,0.238281,173,185,104,116
77.473,11:27:7.473,2.139648,5.813477,0.645508,0.186035,0.304199,-1.298096,0.,0.,0.,-2.669189,-0.132812,0.144531,0.238281,158,187,106,116
77.573,11:27:7.573,2.139648,5.813477,0.645508,0.186035,0.304199,-1.298096,0.,0.,0.,-2.669189,-0.132812,0.144531,0.238281,158,187,106,116
77.673,11:27:7.673,0.391602,-0.142578,-0.697266,-0.038086,0.394775,-1.420654,0.,0.,0.,-2.726807,-0.454102,0.263916,0.238281,129,191,111,117
77.773,11:27:7.773,0.391602,-0.142578,-0.697266,-0.038086,0.394775,-1.420654,0.,0.,0.,-2.726807,-0.454102,0.263916,0.238281,129,191,111,117
77.873,11:27:7.873,-7.572266,-10.991211,30.891602,1.481201,2.281494,-6.57666,0.,0.,0.,-2.713379,0.3125,-0.123291,0.238281,182,192,114,131
77.973,11:27:7.973,-8.266602,-6.298828,2.350586,0.199951,-0.40332,-2.263428,0.,0.,0.,-2.685059,0.108887,0.006592,0.238281,184,191,114,95
78.073,11:27:8.073,-10.229492,1.501953,3.039062,0.164795,1.30249,0.864014,0.,0.,0.,-2.696777,-0.049805,0.106934,0.226562,184,191,111,42
78.173,11:27:8.173,-10.416016,0.080078,-0.451172,-0.011475,-1.690918,0.420166,0.,0.,0.,-2.696533,0.003174,0.06665,0.242188,186,189,109,73
78.273,11:27:8.273,-9.841797,-1.90625,0.237305,-0.009521,-0.627686,1.500488,0.,0.,0.,-2.700684,0.124512,-0.020508,0.242188,186,188,114,121
78.373,11:27:8.373,-9.214844,-1.625,-2.307617,-0.04248,-1.154541,1.464111,0.,0.,0.,-2.723145,0.25,-0.13501,0.230469,188,189,116,119
